timestamp,ax,ay,az,gx,gy,gz
92,17168,-4900,-1736,-3414,-6,-950
113,13628,-2544,-1128,-1149,137,-1483
136,13032,-1872,-988,-3692,-3972,-3790
158,17532,-5872,-1120,-2199,-3415,-2168
179,14920,-5632,-2244,2345,470,6589
201,9856,-3836,-912,1038,-45,2549
224,7852,-10452,-228,-7123,-2245,-2342
246,8292,-20556,-2940,-2748,-5543,-9203
268,9932,-23304,-5356,12097,-12749,-8878
290,16660,-16848,-7944,26775,-14962,-11732
312,18956,-5892,-9344,27671,-13878,-1104
333,23780,-4596,-9348,21743,-15121,-10912
356,29384,-8040,-11436,22519,-6735,-6936
378,21924,-4312,-13660,30757,449,-2557
400,21888,3828,-14476,30694,-9272,-10325
422,32116,5628,-15484,22363,-4759,-13682
444,30420,4904,-18636,18399,5247,-12831
466,30408,6384,-20520,20788,4381,-14231
487,32767,10100,-19328,19142,10414,-6240
510,28904,12756,-17468,14567,18693,-5989
532,23228,16868,-13764,4894,21505,-12012
554,22456,9252,-11892,-7542,22027,-14508
575,22276,28,-10928,-246,25574,-4969
597,14032,8700,-7840,11253,28621,4406
618,4776,21268,-3932,4698,23143,-43
642,9420,20724,-3348,-12940,12680,-10075
663,16828,7928,-4656,-20865,17907,-4759
686,7140,5408,-4564,-13518,23093,2492
707,1124,12880,-2404,-12969,13882,-2596
729,4792,9788,-1580,-24310,10130,-8712
752,3648,2164,-2404,-24242,13837,-6662
774,-3292,5172,-1888,-19476,8917,-5705
796,-1372,6420,-2004,-23440,1749,-4391
817,3428,-800,-2736,-26592,2228,-3758
839,-2540,-5600,-2088,-25734,5235,1962
861,-7100,-7760,-2576,-18666,-3251,-4780
883,-1220,-3576,-2236,-12688,-13719,-6669
905,6176,-6052,-1520,-19460,-10918,3937
927,1688,-12112,-1996,-16989,-7481,6621
949,2416,-11776,-4320,-9466,-17560,-8157
972,11772,-6324,-2932,-5785,-18969,-6985
993,13552,-7836,-3312,-10640,-15342,2466
1015,13648,-14624,-6204,-7539,-18067,5367
1037,15844,-11548,-1804,914,-13942,5730
1060,11052,-8144,-1060,-5608,-14801,-1672
1082,16880,-19032,-6568,-5465,-21938,-4920
1104,23264,-21252,-8096,6380,-20919,-468
1126,24704,-23584,-11296,7239,-22387,-9486
1147,32767,-27792,-17076,23436,-22572,-15491
1170,31360,-9240,-17592,32767,-14356,-7100
1192,32572,7036,-15168,25271,-16474,-14110
1213,32767,-4756,-19540,10914,-6882,-15026
1236,32767,-10964,-21604,24408,3413,-4172
1258,26904,1328,-22404,32767,6898,-4617
1279,24144,15788,-23024,32767,-1845,-18713
1302,32767,21980,-23340,22616,-1110,-16569
1324,32767,11660,-22052,11214,25430,2637
1346,15424,9680,-18260,17516,32767,11781
1367,8372,14232,-12688,16418,13473,-6190
1389,22960,13248,-10588,5157,8312,-18367
1411,24872,7724,-10104,-2354,22471,-11839
1434,15288,2808,-8556,-1988,25873,-10542
1455,10628,6804,-6496,2998,19649,-13289
1477,14100,12516,-3788,-1822,15264,-11440
1500,15104,9820,-3072,-8755,19121,-3751
1521,8356,7584,-1644,-9674,20142,-1941
1544,5012,8392,-1364,-9177,12173,-3063
1565,11032,9552,-1632,-7584,6794,40
1587,12532,11720,-1028,-11911,12754,10116
1609,4436,8880,-720,-18779,17395,10581
1631,-296,2180,-612,-20683,11166,3188
1654,1752,-2096,-256,-16432,5457,-1773
1675,3352,932,-272,-11855,2809,-2910
1697,3752,5668,116,-13846,3842,1418
1718,-2032,8108,132,-22302,6123,2323
1742,-4084,1016,-2428,-30383,-3172,-2964
1763,4920,-12496,-3568,-26150,-7615,-2043
1785,4192,-11996,-348,-10825,-880,9487
1807,-6120,1588,1928,-9297,-5084,64
1830,-976,1848,-1340,-19774,-17816,-12910
1851,11940,-6560,-2164,-19936,-17106,-5388
1874,8072,-11516,-480,-16952,-4320,5649
1895,-6468,-15772,-2744,-15299,-13995,-253
1918,4496,-19872,-8612,3803,-32768,-11385
1939,28424,-4820,-7952,12275,-32768,123
1961,32767,-4312,-3092,-6329,-8698,18823
1983,4800,-18944,-6616,-12945,4892,21461
2006,4228,-30180,-14760,1691,-32768,-11358
2028,32767,-24220,-23640,23958,-32768,-17092
2049,32767,-6300,-18352,25146,-9169,5803
2072,26616,-3892,-11212,1153,24620,32310
2093,8668,-32768,-17920,-3389,-10469,5982
2116,32767,-32768,-22712,32767,-21845,-19120
2137,26784,-7604,-16284,32767,-1045,-2920
2160,9500,4808,-13200,29442,-6396,-7915
2181,21160,-8652,-19672,20512,-19623,-18275
2203,32712,-7820,-22556,32233,-9465,-14903
2226,27660,3672,-20068,30429,1629,-5570
2247,19572,7228,-18048,25169,7492,-5811
2269,17764,14284,-15288,20341,1685,-12133
2291,28040,13384,-14944,6865,4151,-16659
2313,30004,11520,-15504,650,17748,-14370
2336,21096,9292,-12828,-9335,24057,-14561
2357,18424,580,-12500,-5568,20022,-9525
2379,17740,9676,-9888,107,17402,-9772
2402,22436,11200,-9104,-14858,19766,-10921
2423,19952,-1852,-10692,-18827,29723,-3080
2446,8140,-2652,-8252,-6826,29512,3099
2467,3612,9044,-4276,-1684,20283,-2456
2490,5728,16268,-2340,-15268,17409,-4958
2511,6176,6112,-3632,-28335,19368,-3288
2534,1440,-5392,-3204,-25072,19371,-5044
2556,-3428,-3940,-1340,-14888,12874,-12569
2577,-820,4124,-68,-14820,4499,-19251
2600,1620,5788,148,-23945,3372,-14904
2621,3700,-4768,-528,-27327,3433,-5640
2643,-1204,-10260,900,-16979,5711,3175
2665,-7948,-4864,1820,-12028,-3812,-5258
2687,-472,-5596,-72,-13832,-12528,-9743
2710,4292,-7312,-1016,-12939,-11956,-5005
2731,9112,-15272,-2884,-15349,-11186,-4711
2753,5892,-20812,-3636,-3628,-7914,850
2775,1540,-7564,464,7147,-15644,-4155
2797,6460,-2908,636,-5113,-17047,-8284
2820,10744,-17896,-8232,-5155,-23044,-11926
2842,27496,-16376,-12008,15430,-30913,-10289
2862,32767,1536,1232,9893,-6803,8855
2885,4180,-7268,1592,-13522,6553,18690
2907,-2188,-30992,-9060,374,-25417,-3780
2930,23292,-16660,-14304,31134,-32768,-20797
2952,32767,5900,-13768,20037,-29597,-18395
2974,32767,-4436,-18640,5862,-20086,-9550
2996,32767,-12736,-20332,16424,-3217,10444
3017,24560,-7140,-18596,23118,-529,-1980
3039,29088,4796,-23404,28431,-17124,-26520
3062,32767,10952,-25792,21921,-7080,-16585
3084,32767,7760,-23396,14454,23789,3105
3106,13036,7864,-19736,17646,20655,845
3127,17256,13720,-16960,15182,-1962,-21797
3149,32767,13000,-17512,8325,7782,-17102
3172,25464,10844,-15648,1719,28799,-2771
3194,9832,5128,-12540,4435,24121,-3835
3216,11576,6432,-10420,12593,12950,-6474
3238,15756,19068,-8292,11763,11062,-7026
3260,17588,24744,-6944,-9505,13175,-17384
3282,23488,7392,-7552,-26831,19460,-21126
3303,12280,-4844,-6640,-13372,29306,-4156
3325,404,7760,-3664,4466,12448,-9032
3347,14452,21036,-2008,-2767,3589,-10620
3370,17340,14564,-1648,-22513,21050,1443
3390,52,1624,-2500,-20974,23066,-232
3412,160,1788,-2908,-7871,-6,-10802
3436,16240,9268,-1468,-5185,-840,-2631
3458,11076,14320,-404,-14735,13089,10652
3479,4620,7840,-2580,-19092,8517,4798
3502,8572,4656,-2216,-13838,3654,2652
3523,5860,8504,1192,-17892,10503,8043
3545,-4372,3588,900,-25286,9040,3254
3567,-2056,-6656,-1092,-20094,-4914,-7807
3589,6992,-5940,-1192,-5940,-7177,-1449
3611,3876,6716,1112,-4607,-1085,5648
3634,-688,10068,1016,-18145,-1450,4845
3656,692,-4924,-2012,-26623,-5497,6656
3677,4748,-17312,-2532,-13440,-7881,7568
3698,1376,-8456,316,-2965,-5987,7531
3722,-4168,-3960,-1464,-11840,-9636,-4061
3743,4684,-13444,-6500,-14212,-23005,-12897
3766,21252,-21492,-7260,-8135,-24655,2192
3787,22664,-22304,-5576,7742,-7401,11346
3809,4724,-5468,-1024,14048,-7715,12127
3831,12224,-8352,-2028,-1214,-24234,-3955
3854,27252,-18524,-7660,7754,-20981,-752
3876,28500,-8744,-5084,15952,-9871,3674
3898,18124,-5584,-2600,-653,-9208,2742
3920,26664,-29480,-10732,1226,-18490,-11882
3941,32767,-23124,-16248,32767,-17637,-7695
3964,32767,6400,-8828,32767,-4958,868
3986,20412,3432,-10188,5314,-1540,-5460
4007,31584,-13700,-20976,19026,-21092,-22773
4030,32767,3008,-25100,32767,-10418,-8962
4052,32767,22580,-19212,24513,12234,-2115
4074,27428,12452,-21456,4499,2324,-13401
4096,32767,1324,-23284,13406,2342,-10937
4117,32767,9528,-20364,18445,21957,5055
4139,22072,9100,-15328,8975,27005,6631
4162,11676,4320,-11972,9484,23809,-1748
4184,10704,11664,-9864,13223,10034,-14714
4206,20292,19840,-7660,3061,7496,-19763
4227,23824,14920,-5384,-13259,18933,-12950
4249,14452,2488,-4812,-12729,25396,-3286
4272,5952,3736,-3596,-819,15127,-3294
4294,13652,11712,-1324,-421,6741,-6090
4314,17176,10060,404,-13946,18350,2171
4337,7776,-3328,-1500,-15224,21216,1514
4359,6260,-7152,-1476,452,10394,-2015
4380,13248,6176,232,11918,7520,-1378
4403,12500,17872,3440,-2108,16210,7408
4426,3112,10140,2252,-18038,19782,7642
4446,44,-1360,900,-13521,7779,-1571
4469,7396,-212,2676,-4140,2712,-1511
4491,3948,6580,4988,-7896,9315,4412
4513,-2172,2848,2680,-12036,3915,513
4536,1864,1140,1476,-6507,-4218,-3404
4556,4504,5872,1936,-7255,-2449,-628
4578,2036,7012,440,-13525,-2420,709
4601,3324,2248,-980,-19419,-5092,1240
4623,6744,-8012,-2420,-19664,-4831,6579
4646,6108,-12604,-1596,-10245,-1826,10307
4667,-1200,-4804,1400,-3729,225,9221
4689,-3952,-1792,280,-11884,-10103,6104
4712,7888,-15860,-4408,-13676,-13651,9591
4734,4204,-10904,800,-2113,-5289,10376
4755,-976,-1108,2424,-13408,-12656,-8578
4777,6140,-15188,-3788,-21061,-20394,-8711
4799,18164,-23720,-10936,-3526,-27291,-726
4821,29972,-15872,-6004,9127,-20485,13851
4844,13544,-7328,2800,-5447,3527,14845
4866,-288,-22912,-8132,-13676,-22311,-12752
4888,31744,-32768,-18092,4801,-32768,-11112
4910,32767,-27104,-12392,23375,-16012,1265
4931,17996,-7980,-6480,20885,15377,13255
4953,4412,-9372,-13548,6259,-29415,-25841
4975,32767,-23520,-25564,19332,-32768,-21049
4998,32767,-8512,-22692,32767,3888,-2057
5019,23796,3232,-19140,20433,12211,-398
5040,24152,-10100,-21864,10283,-5298,-15873
5064,32124,-9104,-26596,32767,230,-16687
5086,29604,15084,-26944,32767,-2273,-3883
5107,32767,18340,-25164,12645,2940,-8691
5128,32767,8104,-20860,949,32767,1016
5151,9904,2656,-15344,1859,32767,5562
5174,6500,644,-10200,9023,12502,-10742
5196,18860,11324,-4872,6947,9618,-17037
5217,18640,11192,-3404,-7961,22626,-13916
5239,10148,4460,-3524,-10716,21901,-11498
5262,11584,196,-284,-6975,14972,-12760
5283,10016,3516,260,-4708,16826,-11598
5306,8232,6624,-16,-5516,12594,-11292
5326,12776,7004,-108,-4816,9953,-5541
5349,11184,7708,1812,-7482,16748,5110
5371,5724,3728,192,-10591,14613,-425
5393,7676,936,-116,-5751,11796,-1795
5415,6964,5440,1036,-3310,11948,1052
5437,3732,11780,3236,-7483,10345,991
5459,620,10896,2384,-16742,6838,4331
5481,7828,-1708,-508,-18107,-20,2160
5503,12020,-3600,1588,-7794,5941,7871
5525,604,5584,4924,-10543,10577,7046
5548,-2960,2640,2376,-16346,-1493,-1507
5569,7184,-3972,-268,-12856,-9801,-1425
5592,15372,-4952,-1452,-6234,-4144,7727
5613,9256,1516,1712,-8656,7800,18604
5636,-4080,-384,2104,-18831,6194,12798
5657,-2768,-12040,172,-18960,-7939,825
5680,4508,-13844,844,-6771,-10244,3211
5701,3520,-4912,-368,-6305,-10856,8736
5723,9008,-9704,-2440,-14176,-12037,11260
5746,10508,-17272,-2332,-7984,-6009,14713
5768,352,-9908,-1212,-2087,-7021,12321
5790,7620,-10412,-5128,-10670,-20327,141
5811,19328,-19364,-6808,-7935,-14492,5715
5833,16032,-15720,-2256,4799,-877,21383
5853,-5592,-688,2524,-3568,2502,18745
5878,-6016,-11436,-4488,-25375,-19667,-7394
5900,17500,-32768,-11864,-13218,-23495,-11083
5922,14584,-29352,-8412,14428,-12079,3502
5944,5832,-11384,-7496,6078,-22153,-8789
5966,27484,-25472,-18764,-9277,-32768,-18691
5987,32767,-32768,-19964,8384,-17500,-12903
6009,29048,-22292,-17508,30032,3285,6582
6031,17452,-6860,-13300,15417,-10294,-5827
6053,30216,-20500,-16116,6319,-9261,-14216
6075,22384,-20016,-19424,21021,-1387,-18473
6097,24404,-9548,-23076,24165,-17239,-20191
6120,32767,-6284,-24840,23612,-13428,-22656
6142,32767,-32,-20696,22152,18076,-5974
6163,16564,-188,-17084,13506,24193,-818
6186,13348,-6192,-15760,15776,5967,-9120
6207,22468,2236,-15000,22248,4718,-16846
6229,22132,13356,-11332,8539,12818,-17646
6251,22776,6712,-8320,-7806,16889,-17092
6273,17036,-868,-6052,-6143,24458,-14272
6296,10620,-604,-5588,-1519,16969,-14307
6317,20812,-1620,-7324,3079,10213,-15176
6340,24856,1888,-5596,1978,21569,-3448
6362,12956,4260,-3368,-2016,32767,-208
6384,1604,3804,-1676,-1898,26921,-2309
6405,6048,4948,-756,4803,14675,-5950
6427,12456,14136,48,5436,17907,-3998
6448,7612,19172,572,-7710,26667,-2575
6472,-2104,11944,1092,-19992,27170,-1497
6493,-8200,3616,1488,-19103,17102,-3819
6516,-6444,3932,2828,-14635,4573,-5662
6537,1036,5956,1820,-14795,85,-3893
6558,2896,7244,1028,-18491,4650,4166
6580,-3080,5100,148,-25086,7310,10882
6604,-6896,-3748,-1472,-30913,1994,9409
6625,-4548,-14444,-2916,-25387,-5730,4238
6647,-2792,-11548,-68,-11445,-7586,5340
6668,-8208,24,1572,-18496,-9918,4931
6692,-3384,-11204,-4780,-32765,-18935,-3829
6714,7212,-27668,-9040,-19739,-25603,4226
6735,10432,-16056,-2524,2847,-18654,10965
6758,-1332,2016,1220,-13588,-13728,1350
6779,2000,-18128,-9424,-32768,-25733,-9494
6802,15188,-32768,-13464,-18470,-28186,4283
6824,7488,-32768,-10704,7185,-17940,3248
6846,1096,-25256,-18508,21039,-32768,-22423
6867,31952,-15196,-23636,11480,-32768,-19745
6890,32767,-25236,-16184,2063,-17052,2515
6912,9868,-31784,-14592,5675,19087,16927
6933,-8192,-32768,-19972,21710,-27101,-20092
6956,24296,-18452,-28028,32767,-32768,-32768
6977,32767,12000,-28804,32767,-30372,-15898
6999,32767,3616,-28580,-3071,-14945,-19620
7021,32767,-26804,-32768,-3297,17621,-8661
7043,17256,-24380,-32768,32767,17342,-4692
7066,19872,6360,-30796,32767,-5822,-14515
7087,32767,14712,-25312,18266,3626,-23659
7110,32767,4424,-25716,-478,25335,-19138
7132,21592,928,-19832,-3583,32767,-18814
7153,9896,-1264,-14668,-5133,32206,-24133
7176,15124,1712,-12076,3820,21672,-26451
7198,21584,13464,-8644,-564,30960,-20169
7220,10648,13492,-5172,-22384,32767,-22189
7242,2532,-6096,-6052,-28191,32767,-23741
7263,3964,-11756,-5684,-6038,21343,-8691
7285,9976,1176,-2156,9143,11839,10500
7307,10572,14720,3256,-1198,22034,4407
7330,4492,10076,1368,-22349,26666,-14066
7352,1920,-2264,-396,-19617,20593,-13514
7373,1200,2824,3104,-7730,13052,-4337
7396,-328,12936,5304,-12073,12635,-355
7417,-2808,11968,3012,-25939,9296,-8140
7439,572,1264,76,-29164,4597,-9358
7461,1228,-3236,592,-22419,3321,1039
7482,-4304,1384,2964,-18844,2658,7333
7505,-7512,2580,1320,-25619,-4786,1125
7527,-1132,-9104,-2756,-30400,-13648,-5541
7549,7676,-18084,-1672,-20942,-12976,-2127
7572,2140,-14592,1204,-9025,-6235,8584
7594,-9880,-3892,516,-11972,-9485,1357
7615,-5964,-9704,-4532,-20691,-31837,-13768
7637,15076,-21980,-8996,-13301,-32768,-6639
7659,23980,-20596,-7388,3363,-23002,8733
7681,5612,-1232,-364,1822,-7403,16848
7703,-5004,-8676,-4104,-25735,-22908,-3070
7726,11756,-32768,-14588,-15421,-32768,-15020
7748,23728,-32768,-15684,24960,-32768,144
7770,19520,-3212,-7780,30032,-25257,8442
7792,12036,-1144,-8256,-9142,-24055,-8580
7813,20276,-32768,-18596,-10839,-26841,-10496
7836,18968,-32768,-24696,29410,-19156,-7993
7857,8304,-10840,-30112,32767,-32768,-16043
7879,32767,6820,-32768,32767,-32768,-15972
7901,32767,-3968,-32512,8759,-25106,-19977
7923,32767,-20612,-32768,11669,27899,52
7945,8760,-13332,-32768,32767,15740,2071
7968,21444,1596,-32548,32767,-14771,-16845
7990,32767,2960,-30432,23637,6685,-12446
8012,29088,-1184,-28528,14702,32767,-2792
8033,13148,-5820,-24140,14756,31004,-6002
8056,16716,-1944,-19816,23015,21068,-10995
8077,17856,8488,-13840,16805,29668,-11902
8099,14344,6124,-10456,-2312,28586,-18902
8122,20564,-6852,-8724,-5420,32767,-23382
8143,10492,-6436,-5596,669,32767,-13620
8166,1328,-292,-1600,6946,31505,-15743
8186,2516,6980,2412,4346,18395,-17857
8210,13840,8200,2080,-1932,14412,-19184
8231,14604,8800,3188,-8703,27259,-5753
8253,4088,3616,1148,-9062,29618,-2839
8275,-868,7208,2784,-2552,16827,156
8297,4256,12292,5984,-6908,13200,-100
8318,404,12228,6068,-16458,19778,4212
8342,-8864,7580,3996,-24106,12713,-1200
8363,-3000,1440,1380,-22875,-1739,-9705
8384,4516,3244,1508,-22669,-169,-4729
8407,972,1844,1416,-31542,7583,935
8430,-9124,-5472,-176,-32768,5167,-2176
8451,-9800,-9500,-1152,-28415,-13142,-10856
8474,3956,-11148,-2524,-21293,-21928,-11293
8496,11160,-7904,-1532,-15930,-13636,2921
8516,-852,580,-812,-22501,-4511,4990
8539,-7076,-8984,-5100,-32768,-14396,-7489
8562,-2376,-24496,-8188,-28167,-29431,-8197
8583,6276,-25728,-9304,-6745,-29122,795
8605,-6228,-7924,-10432,-5212,-27173,1525
8628,3072,-15260,-21356,-20588,-32768,-25027
8649,25100,-32768,-27292,-15958,-32768,-8645
8672,26936,-32768,-20408,11795,-29544,11999
8693,1980,-22080,-16916,14696,-20106,1983
8715,-2600,-28676,-26316,9960,-32768,-23278
8737,17460,-32264,-32768,30428,-32768,-29719
8760,24500,-11128,-32768,32767,-32768,-13817
8781,32767,6648,-32768,29202,-32768,-14226
8803,32767,-11060,-32768,-2059,1275,-13695
8826,12644,-29572,-32768,14621,27277,1069
8847,3196,-14588,-32768,32767,-17003,-23451
8869,32767,5272,-32768,32767,-21970,-26065
8891,32767,8120,-32768,22814,25627,-12442
8913,20428,5848,-31496,9848,32767,-2515
8936,5156,-956,-23428,4368,32767,-18044
8957,10884,-4984,-19680,9294,31270,-25115
8979,16964,2236,-15896,9959,30285,-16130
9002,18644,444,-12380,-657,32767,-8505
9024,11964,-6188,-11640,2402,32767,-9576
9046,3048,2296,-6848,5723,32767,-20397
9067,4892,7088,-1700,-5434,32767,-30046
9089,5440,5200,704,-13358,32513,-24246
9111,2504,3724,1732,-12341,27974,-15559
9132,384,4844,3968,-11754,21603,-2971
9154,1104,2524,4904,-14040,15722,1134
9177,3044,1240,4628,-12597,13344,582
9200,2824,5164,4304,-13531,10541,-3125
9222,4120,5740,4704,-21486,11104,-4368
9244,-564,-1032,3832,-26086,13555,-940
9266,-7260,-4948,2556,-20101,6409,3184
9287,-3644,-2212,2036,-13898,-6891,-826
9308,5244,532,2412,-22120,-5441,-2928
9331,3476,-6616,368,-27187,3432,-3069
9354,-6160,-8288,-172,-23862,-1818,-2307
9376,-3352,-12320,-3028,-21874,-13275,-7437
9398,3044,-13552,-2444,-15422,-18022,-6367
9420,6724,-8420,-2604,-13529,-15404,-7880
9442,3056,-9056,-4356,-17080,-11358,-4317
9463,-1376,-15244,-7488,-15371,-20924,-4336
9485,5320,-17100,-7728,-4560,-30460,-887
9507,7304,-8152,-5948,-1584,-24228,290
9530,-1184,-7400,-8284,-16910,-22768,-1200
9551,-4824,-20148,-15912,-19400,-30900,-2124
9574,2012,-30040,-17784,-17635,-32768,-4942
9595,6704,-32768,-31776,-2598,-32768,-21388
9617,12004,-32768,-32768,28404,-32768,-29826
9639,32767,-26628,-32768,30751,-32768,-25326
9662,32620,-23396,-32768,32767,-23468,-16021
9683,25736,-6320,-32768,32767,-28359,-10243
9706,32767,2256,-32768,28795,-10653,-18536
9727,21696,-1064,-32768,20224,3155,-18465
9749,23712,-1104,-32768,17675,-3971,-27696
9772,32767,-10100,-32768,13482,5694,-26231
9793,30972,-7416,-32768,32767,25336,-6991
9815,18436,18364,-29304,32767,27845,-7408
9837,20688,24948,-20288,-3438,29823,-29807
9860,26284,1844,-22540,-27148,32767,-32768
9882,18316,-15196,-22928,-16085,32767,-25398
9903,3288,-9608,-15548,4829,32767,-5903
9926,-3016,5056,-5580,6304,32767,-10312
9947,7692,3936,-2380,-6494,27510,-23180
9970,9888,1012,-3300,-3914,32251,-17234
9991,4572,9128,1008,-9721,28825,-15480
10012,8464,-76,696,-18447,25704,-19960
10035,4328,-1372,1096,-7960,29307,-14081
10057,-2184,11644,3152,-9331,16378,-12570
10080,9136,8188,3880,-25015,8208,-16971
10102,10852,-4812,4428,-27284,23622,-2329
10123,-10728,-4620,5200,-13112,21165,-1505
10145,-11064,3832,5760,-10902,-7573,-15537
10167,7864,5312,4360,-14502,-14731,-16124
10189,8520,5300,5096,-21766,-529,-3129
10212,-3488,-960,2552,-24595,-2922,-1413
10233,1536,-8200,540,-14954,-19145,-5387
10255,14060,-3244,756,-6112,-21136,3164
10277,17800,408,1280,-11934,-8160,8387
10299,8452,-3308,-36,-16705,-1589,11760
10322,3736,-8692,1784,-16800,-12600,4208
10344,13216,-14532,520,-8585,-19521,-2878
10364,17344,-6340,-44,28,-14491,3311
10387,18344,788,-1044,-7235,-13219,1238
10410,21108,-6372,-1992,-17422,-8040,3361
10432,16084,-16188,-2020,-11209,-2299,4981
10453,8328,-12488,-2236,2899,-9439,3346
10474,14348,-720,-2056,7779,-19559,1385
10496,23232,8616,576,-2218,-10318,1688
10519,15340,2360,-252,-20575,6704,7697
10542,568,-10404,-2580,-18882,1693,4733
10564,1088,-14096,-3292,-5109,-15265,1530
10586,6904,-5976,-1696,-850,-17021,1568
10607,4440,-4944,-4292,-9737,-14624,-906
10629,4224,-14588,-9540,-13027,-22045,-3179
10652,9256,-25084,-13852,-2916,-23404,-3844
10674,5028,-22456,-14340,11013,-21097,-4187
10696,-4564,-13176,-15324,9569,-32109,-12962
10717,7648,-31232,-26888,6965,-32768,-19765
10739,19780,-32768,-31392,32767,-32768,-10007
10761,13444,-4308,-28744,32767,-32768,1050
10783,32767,8220,-24308,22272,-32768,-13559
10806,31308,-16400,-26212,-14463,-3226,-4611
10828,3356,-32768,-32768,9006,-10672,-10690
10849,26568,-25916,-32768,32767,-32768,-32768
10872,32767,-3564,-32768,32767,-7907,-16498
10894,25388,-7076,-32768,21745,26254,-3279
10916,7700,-10116,-32768,32767,13463,-14881
10938,16040,8808,-32768,32767,4037,-24302
10959,23160,18464,-30340,14415,11625,-18257
10981,26388,12464,-27904,-2622,25593,-14942
11003,18572,12024,-24120,-9325,32767,-21409
11025,22176,11576,-20176,-22244,32767,-32768
11047,22072,-1088,-20052,-32768,32767,-32580
11070,4104,-12728,-17240,-28971,32767,-21959
11091,-5388,-12296,-7656,-13630,32767,-31031
11113,-4128,-4812,-2120,-8233,29031,-32768
11134,3884,1580,656,-8091,20167,-26009
11157,6060,8340,2912,-11617,22670,-17376
11178,-476,8972,4252,-21146,22304,-13935
11201,-1520,1156,4224,-20126,11530,-13364
11222,2720,976,4876,-13241,4350,-5814
11245,2664,5320,7080,-13184,4354,811
11267,-380,4928,6808,-17158,1233,578
11290,-160,1952,5096,-16170,-4641,-1910
11312,2868,2328,3784,-14134,-11407,-2725
11333,9440,1772,2848,-14684,-11587,677
11356,10072,-1240,2232,-16382,-6835,4810
11378,4400,-2592,1152,-13293,-4941,4258
11398,1980,1320,424,-11953,-14321,-1457
11422,8980,-1876,-804,-16181,-18074,623
11443,9728,-7320,-2012,-12841,-13660,3415
11466,5240,-5860,-1788,-6186,-15885,2267
11486,4652,-2112,-2436,-4425,-22159,935
11510,9368,-2984,-3596,-8267,-25489,137
11532,16108,-6564,-5740,-3452,-21449,-832
11552,12620,1652,-1264,-4456,-8830,6558
11575,-5856,-1936,-1904,-22134,-6471,11328
11598,-10100,-21196,-10320,-21167,-26373,19
11620,5204,-30760,-19860,-1341,-32768,-15633
11642,13476,-31816,-26324,16890,-32768,-13718
11664,13248,-29864,-31712,32767,-32768,-5425
11686,11756,-18836,-32768,32767,-32768,1692
11707,25500,-3132,-32768,32767,-32768,-2867
11730,32767,-4008,-30880,20343,-31083,-10130
11751,32767,-22564,-30936,11259,1408,-110
11774,15328,-26320,-32768,31162,-351,-805
11796,13792,-6556,-32768,32767,-15626,-13203
11818,32767,17400,-32768,30760,-24838,-24776
11839,32767,560,-32768,-5057,2099,-27322
11861,32767,-21092,-32768,10287,32767,-6798
11884,15376,-11492,-32768,32092,32767,5462
11906,-5644,3536,-27884,30746,32767,-9745
11927,10372,7368,-21452,21317,12190,-26830
11949,21968,16880,-17312,11894,27804,-23151
11972,13328,19884,-12456,-11045,32767,-25050
11993,9028,2168,-10300,-23464,32767,-28122
12015,6740,-8292,-7192,-5687,32767,-16801
12037,-812,5424,-1752,6203,22209,-8603
12058,7660,13732,1712,-6094,11890,-9740
12082,18260,1304,-1072,-17015,19129,-6564
12103,11424,-3520,-468,-10065,29074,2554
12123,940,6016,3808,-7599,23138,-6872
12148,2740,8408,4508,-19899,15465,-17475
12169,4444,2964,3140,-25247,12661,-14607
12190,2696,-176,3288,-24452,8233,-9010
12212,6496,-5056,2820,-21377,2381,-7698
12236,10860,-6960,2256,-12718,3883,-1232
12256,6192,4484,3956,-8194,7235,2073
12278,876,8228,4992,-22197,6386,-1520
12302,-1320,-3760,2420,-27736,3439,-2063
12323,-2960,-7864,76,-15217,-6496,-521
12346,4348,3256,272,-12070,-16471,-5027
12366,14864,-16,-24,-26688,-9455,-4533
12390,9260,-13324,-1604,-24986,1597,3206
12411,-2960,-12340,-828,-9973,-4211,3577
12433,-776,-448,-520,-2509,-21708,-3060
12456,14060,1648,-648,-17281,-22486,-74
12477,15624,-15156,-4036,-24187,-6559,5705
12499,928,-19588,-4352,-9484,-4408,5187
12522,-1372,-12760,-3772,-2437,-24226,-6046
12543,12496,-14344,-6936,80,-26794,1256
12566,13436,-14320,-8880,3964,-22190,7099
12587,15864,-9864,-7864,4499,-25733,2845
12609,24772,-15572,-7580,-5840,-18168,3803
12631,13324,-24120,-8992,-2761,-4588,17042
12654,-2296,-29484,-10620,-2261,-18127,5877
12675,12248,-32768,-19012,12267,-32768,-18618
12697,30404,-32768,-28412,32767,-32768,-13022
12719,32767,-6808,-25520,32767,-32768,9168
12742,32767,-9520,-21120,18532,-11837,4287
12764,23760,-26288,-27088,19115,-5153,-8678
12785,23148,-21572,-31800,32767,-20752,-15095
12808,32767,-5984,-30524,32767,-14952,-17302
12829,30632,3784,-28300,22482,11180,-15947
12851,24700,-448,-30844,12115,3892,-27516
12873,32767,-3800,-30764,12803,11874,-28543
12896,31908,-1320,-28956,15103,32767,-15028
12917,18228,5392,-23932,16332,32767,-15154
12939,16828,5916,-18428,6133,32767,-23405
12962,18348,-520,-16860,1243,32767,-23171
12983,11036,-1092,-13040,2588,32767,-18025
13005,-1028,3760,-7400,5217,32767,-12117
13027,-4244,14652,1728,-4087,27591,-21436
13050,2744,9304,2840,-18515,16491,-28701
13072,10048,2852,1548,-17109,14668,-22134
13093,8340,5640,4444,-16062,17777,-6961
13116,2156,2732,6088,-20717,18299,-2990
13137,-2484,-1532,5528,-13310,10879,447
13158,-1316,4692,7400,-9358,1571,682
13180,976,8156,8872,-19498,2864,-1315
13203,-1932,-324,5812,-26163,3663,-1710
13226,-3436,-6396,3908,-19325,-3750,-1042
13248,-376,-3916,4376,-13487,-10913,3264
13270,4332,-3168,3684,-15269,-11824,4101
13291,5268,-3808,2008,-15745,-8857,4219
13313,2552,-3132,1016,-16358,-8407,2646
13336,4052,-8180,-224,-18950,-13009,3599
13357,9292,-12580,-1784,-12173,-12387,8648
13378,9480,-10788,440,-9032,-9297,9770
13401,2852,-7448,-96,-9465,-3707,10607
13423,-3176,-6604,228,-15692,-12432,3919
13445,1316,-16012,-2232,-16042,-21737,2500
13468,7132,-19188,-4024,-3824,-21642,6509
13488,828,-10532,-3968,2154,-16397,7498
13511,-500,-7080,-4148,-4113,-28732,387
13533,10540,-14436,-6264,-10171,-32634,3878
13556,12200,-17512,-8120,-5087,-20898,8397
13578,-6048,-15804,-7984,-16174,-11491,6172
13599,-10976,-32768,-21316,-15738,-32768,-13242
13622,13204,-32768,-28944,21258,-32768,-12509
13644,31620,-19616,-19460,32767,-32768,8199
13666,16860,-1408,-9356,6789,-14667,12531
13688,-4208,-24568,-25376,-15429,-23220,806
13709,20956,-32768,-32768,12402,-32768,-32768
13731,32767,-23152,-32768,9361,-32768,-29699
13753,32767,-32768,-32768,-3821,16589,-5292
13775,11180,-32768,-32768,22707,32767,-6016
13797,-6800,-9724,-32768,32767,2009,-32768
13820,28100,-740,-32768,24577,-14005,-32768
13841,32767,1032,-31672,16588,26566,-30382
13863,13652,9324,-25964,16451,32767,-20414
13886,2004,19420,-13060,4789,32767,-32768
13907,8312,10520,-7964,-12060,26376,-32768
13930,8552,2152,-8244,-4413,25081,-24187
13950,8284,10700,-5244,151,17103,-15079
13973,18324,11076,-4104,-13746,15377,-18774
13996,21176,736,-7864,-21560,27820,-16588
14017,10468,-3312,-8412,-16153,31022,-12380
14039,5192,1376,-1192,-10260,21823,-7833
14060,5240,2948,1268,-12516,18161,-7234
14083,1260,4668,-488,-11415,13533,-5696
14105,5812,5372,640,-12388,931,-3285
14127,15720,-1268,1504,-13537,4748,4472
14149,8372,4416,372,-5132,10379,2749
14171,6120,13604,132,-13822,1688,-1146
14193,14680,3624,1480,-27975,3978,2288
14215,9584,-12416,96,-21921,11061,7040
14237,2924,-11324,-588,-120,1137,7624
14258,10012,7452,552,7266,-8648,4990
14280,18660,13640,3616,-11705,2690,6883
14303,9084,-720,1596,-23011,15078,14454
14325,-1288,-11992,80,-9097,1741,15603
14346,9620,-9356,136,6387,-12295,12596
14369,18024,4652,1312,8443,-3619,12503
14392,14076,11496,1852,-11046,7667,12297
14413,9216,-5004,840,-22635,9954,14640
14436,5072,-18036,1976,-13930,5219,12684
14457,4264,-16692,3344,2214,-726,9255
14478,5184,-3264,3564,6437,-7207,6448
14500,14180,572,2400,-1042,-7419,9054
14523,15232,-4992,2732,-9872,4097,19166
14546,3040,-12664,1808,-11769,5779,16874
14568,4004,-17228,2244,-3839,-4885,4156
14588,6724,-10188,4516,1868,-3960,1192
14611,4136,-4764,2196,-3108,-7734,5140
14633,13212,-8360,-1188,-4639,-12031,5593
14655,14988,-8152,200,-6706,1303,11713
14677,1356,-9564,1704,-12906,5997,10162
14700,-2740,-17640,-2468,-11042,-6215,2660
14721,6080,-17460,-3820,1140,-12805,-36
14742,8568,-5108,-896,3237,-7795,5930
14765,548,2800,1192,-8360,-1016,5748
14787,-5268,-48,-4064,-28328,-10776,-10339
14810,8160,-27684,-10084,-30747,-15916,-10905
14831,8128,-32768,-6296,-1244,-8771,12595
14853,-8552,-19396,-3396,20126,-15746,19797
14876,-4516,-316,-4784,7573,-32768,1330
14897,11772,-11016,-9392,-19409,-25129,-2073
14919,10936,-32768,-15964,-21633,-17818,-1035
14941,9068,-32768,-15276,7799,-22222,4954
14963,5884,-24412,-12000,26439,-25412,4023
14985,3696,-3048,-9928,9634,-25977,-9653
15007,20580,-21640,-21096,-19181,-30544,-25292
15030,31832,-32768,-25716,-4912,-14742,-11997
15052,16916,-32768,-24996,27920,-1598,-6567
15074,3724,-11032,-20456,16819,-14931,-24083
15095,28040,-23216,-26364,2629,-25667,-32768
15117,32767,-29304,-29636,17192,-699,-25802
15139,18652,-10184,-29388,28673,9077,-28108
15162,18960,6440,-27280,17841,-1922,-32768
15183,32220,2460,-24628,1204,10142,-32768
15206,19696,-3836,-22480,3145,29270,-20510
15227,5812,-424,-18584,12573,17803,-25655
15250,15180,7704,-13300,14898,9672,-28066
15272,18076,14848,-9560,2245,19661,-23146
15293,12492,8312,-8928,-11297,22564,-18919
15316,10604,1644,-7340,-10442,17554,-14367
15338,11528,1464,-3728,-7322,13005,-11778
15359,11368,3588,-2796,-8420,12366,-12034
15381,14712,1732,-5536,-9806,6935,-10632
15403,20820,-1988,-6060,-7847,8781,-3308
15426,18240,-1308,-3924,-2277,18330,2937
15445,7488,8396,-2856,-1456,18170,475
15470,7428,10268,-2448,-9570,11054,-3678
15490,10916,8260,-1024,-12627,11309,815
15512,5692,7080,-356,-18768,14155,5234
15534,5164,-3136,-3468,-19708,5806,1543
15556,12476,-6464,-4648,-6278,2639,3390
15578,13240,7180,-1040,-2039,7754,5363
15600,9440,9380,-580,-16919,12927,4971
15623,6668,-3968,-3128,-19630,10920,7138
15644,7184,-4360,-1764,-4086,3850,10390
15666,10768,6240,1116,-3758,3635,12722
15688,10228,4848,-40,-15759,10313,11808
15711,6244,-5904,-56,-18604,8610,7493
15732,7704,-11372,2412,-6950,4437,5155
15754,6356,2788,5032,1720,3078,10039
15776,6552,8256,4256,-12975,2527,10816
15798,9044,-4192,380,-22485,2672,7374
15820,7928,-14888,476,-18467,4892,11637
15843,1544,-17236,1480,-6011,3299,15348
15865,-2052,-11220,744,-710,-6599,10491
15886,8388,-4956,592,-1627,-13493,1689
15909,14168,-4976,2800,-11767,67,9155
15931,-112,-13624,412,-16197,6733,14332
15952,-6324,-21796,-716,-7590,-8374,6656
15975,5040,-21500,-832,6141,-20360,5299
15998,12296,-13936,1712,12791,-16264,15849
16019,7036,-7140,2356,6414,-8791,17742
16042,4928,-13092,-2144,-1524,-11462,5456
16064,12512,-18132,-3264,2919,-15068,3343
16085,17064,-14576,-760,5299,-3992,13986
16106,1216,-9832,616,-2957,6034,16587
16130,-7512,-17744,-1588,-8796,-5934,4270
16151,4260,-28128,-1556,-1137,-17848,-3930
16174,13244,-25832,-1596,9274,-16204,4948
16194,14912,-17796,-352,9252,-8335,7726
16216,5708,-14412,2524,-1282,-31,7332
16239,-3724,-19968,688,-10425,-9564,-5374
16261,6388,-29388,-6288,-7520,-25442,-14413
16283,24968,-32768,-10512,4047,-24681,-8582
16306,22932,-28468,-7460,16059,-1284,5758
16327,2348,-17972,-3816,15724,-3722,3387
16349,8088,-16748,-3984,9148,-20211,-11532
16372,20260,-19704,-6860,8455,-12796,-8737
16393,6872,-16452,-7932,4714,-4845,-10085
16415,13024,-17224,-14476,6044,-27135,-32570
16437,32767,-15900,-16304,5366,-21725,-26486
16459,32767,-19308,-16996,3960,5091,-14067
16481,8060,-13680,-16372,12863,5263,-17435
16503,14344,-4752,-18100,15822,-20129,-32768
16525,32767,-1924,-17880,9646,-9983,-26282
16548,28128,-2236,-15688,5362,13879,-14511
16570,13364,-1508,-10880,7548,9817,-15124
16590,16656,1928,-7492,5725,671,-19791
16612,19808,4140,-8848,3839,3793,-16272
16635,20248,7604,-7656,-2213,4344,-14927
16657,24588,672,-6932,-11284,8047,-16353
16679,23024,-5060,-8188,-7845,14855,-14182
16702,17904,512,-7896,-2935,14323,-15037
16723,18388,2208,-4940,-7471,15843,-10940
16745,12060,-880,-2456,-7557,19717,-5426
16766,5032,2428,-2024,-3182,12248,-7333
16789,10316,7032,-3716,-4638,592,-8916
16811,21880,4596,-3700,-11243,5934,-3909
16832,15764,992,-4084,-10801,21624,1690
16855,1896,3656,-3500,-9666,13521,-1308
16877,7716,2716,-2328,-7403,3661,68
16898,11468,4864,-736,-6059,7433,6826
16920,7576,7028,-2416,-8723,7231,9743
16942,10716,5332,-3972,-12783,5151,4188
16964,13544,1084,-2652,-16355,9426,5564
16988,7820,-5480,-1352,-14043,14803,11439
17009,928,-5572,-1120,-2304,7275,9788
17030,5972,796,80,1449,-1586,5732
17052,12536,560,1788,-1786,2320,9585
17075,6856,3960,1420,737,7476,12567
17096,6476,11700,1928,-9624,2037,8473
17119,10712,888,1392,-26774,7263,8539
17141,4424,-14976,1368,-22195,10757,13776
17163,-3312,-15248,1696,-6310,505,10314
17185,4092,-9388,-56,-3620,-10543,2829
17207,12460,-10232,-308,-2257,-8875,7750
17228,15732,-7260,124,-1776,-3971,14334
17251,11452,-4796,680,-7845,4832,13465
17273,3992,-8164,-1052,-14829,5596,7488
17294,2716,-15276,2100,-15183,-825,4183
17317,3960,-19568,936,-9451,-5820,4966
17338,7080,-18556,-2896,-745,-7164,5496
17361,10460,-10568,-1912,2018,-10148,3011
17382,15440,-6732,1744,-5579,-3160,5268
17406,5920,-12844,1672,-11639,6114,15926
17427,-6876,-15656,-1488,-12321,-6242,1403
17450,10568,-23068,-8292,-4302,-23424,-11083
17470,26632,-17648,-3356,3566,-8086,7191
17494,4684,-12032,-1276,-3946,12002,18301
17516,-10924,-12236,-4364,-11325,-9380,-5438
17537,14980,-29388,-5360,-9616,-27098,-12458
17560,29952,-30680,-5188,9395,-10971,12887
17581,10572,-12924,-2580,3918,4239,16225
17603,2456,-24240,-9140,-17907,-11551,-10614
17626,20148,-32768,-18244,3973,-22502,-21643
17647,31896,-18056,-17044,23076,-15936,-18736
17669,27240,-4092,-11212,7745,3199,-9270
17692,11236,-12804,-11928,-543,5178,-10006
17713,15772,-14612,-16848,11803,-16263,-25634
17736,32767,-10232,-16928,14535,-11063,-23545
17758,32272,-4536,-16232,15387,12315,-14116
17779,16796,1728,-14284,9592,7397,-19826
17802,28168,-5448,-14092,6414,-1585,-22688
17824,30388,-6396,-12752,12881,13619,-9938
17846,16000,1964,-11128,15689,14256,-11650
17868,21092,6332,-11200,8644,3289,-27488
17889,31776,2208,-9088,571,17180,-19414
17911,14592,-952,-6812,174,28126,-9613
17932,9476,132,-5212,8387,10625,-15995
17954,20376,7048,-2216,7299,8803,-13908
17977,19540,7012,-1692,-2900,18843,-11028
17998,14252,724,-1712,-5881,19022,-12825
18021,12844,2236,0,-446,15390,-14460
18043,12516,7956,2360,-4060,15787,-10398
18064,8704,5640,2196,-8435,16206,-6937
18086,6892,3620,2084,-5888,8123,-7105
18108,13440,3464,1568,-647,4186,-527
18130,11004,9324,3404,-219,9378,10960
18153,5052,9848,3068,-5018,6881,10867
18174,9184,4112,-44,-7940,334,5536
18196,15724,2536,-380,-2981,3141,4183
18219,9492,12172,2112,-2668,12219,7304
18241,88,14888,2820,-16788,7442,6467
18263,3460,-188,-480,-21315,-2046,5685
18285,12384,-7268,-116,-6646,-3272,6060
18307,8584,9080,1736,785,2318,11436
18328,7140,15716,1628,-19762,1914,10369
18351,8268,-4968,-3264,-32741,6610,8867
18373,3396,-17480,-2644,-19616,5767,8556
18395,-1252,-11584,1716,-6346,605,5844
18416,-592,-6068,1304,-8884,-9159,-1
18440,11976,-11832,-4408,-5630,-15714,-4922
18461,21392,-984,-2124,1423,-8726,4245
18483,15908,2576,1804,-14553,7461,16349
18504,824,-10204,-784,-20671,6727,14495
18527,3620,-20872,-4532,-10463,-8827,-2313
18549,16552,-17500,-3564,4332,-8496,-498
18570,8060,1196,3044,-29,6073,323
18593,-5408,-1108,1404,-20877,920,-6441
18615,1496,-27744,-6684,-18414,-14761,-13191
18637,19872,-29728,-7336,16877,-22895,-7642
18658,22532,1236,816,23521,-6255,8836
18681,8728,9268,2004,-9791,1921,10429
18703,4756,-20540,-1608,-23478,-2711,5888
18725,10968,-32768,-6508,1393,-18235,-9706
18747,24952,-16632,-7556,20114,-18436,-9769
18769,28772,-2424,-3636,5097,-5599,2380
18791,20752,-15544,-3060,-10373,6317,12889
18812,8072,-28552,-1916,-1168,5723,8008
18834,240,-23688,-2748,11902,-10522,-3375
18858,13736,-19360,-7276,12160,-26002,-14881
18879,32767,-20704,-15624,18544,-26286,-17776
18901,32767,-13012,-15148,22110,-10648,-4653
18923,28600,-10376,-10704,16572,8511,9140
18945,4972,-11796,-9344,14246,3797,-6877
18967,17428,-8776,-17740,27542,-28502,-32768
18989,32767,4836,-21368,27163,-21103,-11337
19012,32767,4756,-20588,14213,6576,-4764
19033,23888,3300,-20004,17988,8155,-9962
19055,25160,13532,-15300,13509,832,-19146
19077,30232,8596,-12728,-2492,12134,-13455
19099,16792,308,-11108,-495,19431,-9167
19120,13448,4636,-8720,5956,5829,-14148
19143,23288,5736,-5056,-2148,6504,-10488
19166,17632,-3208,-4732,-6388,17466,-9097
19186,10704,292,-5880,6490,6863,-19015
19209,22604,13608,-3828,551,854,-20696
19231,25892,7516,-3640,-17860,18188,-12052
19253,12492,-8404,-5792,-13460,21527,-9860
19274,8640,-2668,-4952,6290,7829,-10584
19296,18380,11212,-2384,5291,3524,-4716
19319,19168,10416,-1440,-8571,16874,3303
19340,6716,2520,-3160,-8569,16705,4138
19362,9388,5264,-2428,757,1393,-2485
19385,22176,10664,-812,-5646,8182,1230
19407,9792,7440,-736,-17621,21185,7405
19428,3736,-3996,-2744,-13949,9461,711
19451,12544,2388,-1688,4676,1867,747
19472,14384,21420,1888,-3120,12362,11443
19495,2644,15880,404,-27454,20121,13565
19516,-520,-5688,-1268,-25237,7478,4043
19539,8124,-4712,940,-4645,866,4317
19560,8488,9296,2676,-6555,9013,12923
19583,-728,4384,1896,-20688,11033,10194
19605,-1740,-6200,1836,-16334,-742,171
19627,5772,-1392,4640,-9061,-676,88
19649,-2412,4060,5668,-20211,5596,509
19672,-4892,-11132,452,-21548,-6188,-5832
19693,4952,-14612,-2296,-3436,-16366,-2722
19715,10828,-2344,188,1177,-9106,7802
19737,-328,2852,492,-14119,-1202,5650
19760,-424,-13584,-4308,-23442,-16125,-10215
19781,17588,-22828,-5320,-4702,-19460,-4048
19802,10196,-7068,2336,2827,-84,20053
19825,-12828,-5972,872,-18720,-4942,8614
19847,3480,-31984,-11840,-11569,-32768,-25202
19869,32767,-21648,-11492,17913,-29247,-14072
19890,23388,2044,-3028,7090,9577,26769
19913,-16264,-9280,-1608,-21242,5063,16887
19936,8668,-32768,-18568,2047,-32768,-32768
19958,32767,-10052,-21044,32767,-32768,-31303
19980,32767,14972,-8360,10352,15747,20256
20002,8196,-11256,-2148,-22660,32767,32767
20024,-23196,-32768,-5520,-4171,-5902,-3648
20046,18676,-28768,-21816,32767,-32768,-32768
20067,32767,15184,-18108,32767,-28205,-11362
20090,32767,14160,-8688,-5075,12474,2185
20112,12508,-21780,-14552,-7979,4043,-12094
20133,22584,-19052,-19784,29897,-23698,-28433
20155,32767,5108,-21976,32767,-14888,-11873
20177,32767,6552,-19176,12130,12751,7796
20199,16556,-10976,-19480,10018,24010,8519
20221,4136,-1700,-19444,28421,-6,-18835
20243,22556,15460,-19740,22271,-17698,-28167
20266,32767,12064,-17256,4494,-849,-16173
20286,32767,2424,-15432,5780,30971,6067
20308,6916,7508,-10380,11697,22659,1709
20331,11600,13428,-6580,4719,798,-17813
20353,26424,12660,-6764,-9685,4885,-24487
20376,27736,1952,-8512,-22774,19913,-24850
20397,16100,-6416,-8584,-13057,27308,-17122
20418,9412,2664,-5848,-440,14245,-17472
20442,19064,7484,-2424,-5508,13783,-12982
20463,12448,5636,-2456,-8206,24113,-6368
20485,3648,10276,-3320,-4776,12473,-10791
20507,16096,12096,-4328,-11274,1480,-9017
20529,20284,1712,-2448,-15410,20585,13502
20550,-1968,836,668,-2671,24328,20395
20573,-5244,14856,2368,4158,938,4415
20595,11568,20984,-1384,-9439,-5810,-1374
20616,18692,10516,164,-26436,13599,8069
20639,-3028,-2748,-44,-24737,23743,16171
20661,-11080,-4832,748,-7694,-1677,6143
20682,7784,176,-820,-339,-12893,3247
20704,12100,10372,2584,-3378,4500,11013
20726,-1584,15472,1768,-20246,7974,7339
20749,728,472,-2824,-32329,-5609,-1052
20771,11064,-13948,-3464,-21304,-6524,6872
20792,9292,-9948,-248,-5992,2201,13812
20815,-808,-1608,2544,-9767,2039,10738
20837,-2944,-7464,376,-16705,-7798,-794
20859,5852,-14856,-4424,-5605,-17619,-7702
20880,19044,-2808,-1568,188,-15154,3426
20903,10500,-1532,1436,-18059,7268,20596
20925,-6008,-18312,-4492,-20999,-758,9396
20947,2396,-24632,-3448,-1699,-20800,-5041
20968,10236,-13620,-648,5160,-14755,5305
20992,3944,-9340,-2764,-3131,-14175,6307
21013,9920,-16668,-10136,-8331,-28425,-5316
21035,32508,-23920,-10452,4210,-26208,-4077
21056,21792,-8008,-968,13008,8992,16700
21079,-12508,-2376,-612,-7256,1028,8442
21102,4764,-28020,-13172,-2464,-32768,-16095
21123,32767,-15900,-12096,25251,-27190,-8148
21144,22532,5344,-5616,3827,-3145,-2836
21167,12792,-18392,-11444,-17481,-10915,-6268
21190,19360,-32768,-17808,8440,-19021,-3697
21212,24356,-19168,-21288,32767,-26573,-14809
21233,32767,2000,-20580,26861,-23750,-13515
21255,32767,-3828,-19692,5239,2540,3729
21277,24604,-23216,-21260,6616,21041,11072
21300,8992,-18988,-22068,27848,-4128,-15324
21322,29292,-1240,-23700,30834,-16219,-20598
21344,32767,-368,-22576,13630,5217,-9704
21366,23692,-11480,-21748,13928,21918,-1068
21387,11828,-1008,-19992,30838,5273,-8782
21410,22792,16404,-14956,22382,-2246,-15048
21431,30100,11320,-15132,-2807,13816,-11647
21453,23244,-9748,-14880,-5841,24611,-2351
21476,12832,-5932,-11412,15789,18470,-5127
21497,16820,14584,-5296,8269,8687,-17598
21519,24396,9544,-5364,-16628,15674,-25973
21541,21876,-3628,-6680,-16794,21533,-19499
21563,17408,-1664,-3928,-1109,20349,-6914
21585,13588,9948,-1352,-3999,16252,-3026
21607,16940,2084,-88,-18581,18896,-6065
21629,9716,-6764,-640,-11949,24775,-4469
21650,2624,732,1816,-1529,13392,-9172
21672,10976,6716,3516,-5435,6487,-7628
21695,12448,3588,3000,-10704,16899,2278
21717,636,1808,2988,-9220,18155,4766
21738,-2028,3756,2896,-5769,4024,1908
21760,9424,2624,2964,-8002,-1832,-2207
21782,9924,564,3192,-9161,11563,6365
21804,-4016,1564,1960,-9213,8444,6144
21827,2224,4068,-540,-5593,-10096,-1260
21848,16920,6500,824,-12819,-4217,2598
21871,8604,256,968,-20849,14511,9912
21892,-7060,-5476,-528,-16477,3527,5033
21915,4656,-8204,-2060,-5281,-16811,-3399
21936,18044,-2464,-1348,284,-8905,6249
21958,10128,4244,720,-5211,8140,15161
21980,-6384,1648,500,-17481,4861,10000
22003,-1380,-15388,-4104,-19834,-12285,-996
22026,11948,-21496,-3612,-689,-10245,10656
22046,1660,-1744,1012,8639,6199,16928
22068,-16928,6868,2804,-16106,2685,4733
22091,-7904,-23680,-9436,-27907,-24676,-6108
22114,16620,-32768,-11348,5021,-28879,9414
22136,12544,-6784,-1932,15608,-9335,21276
22158,8944,-10724,-6316,-22845,-18461,-7531
22179,30304,-32768,-16460,-16368,-23336,-11060
22201,32304,-32768,-13840,28030,-8362,10977
22223,11932,1800,3660,18264,4501,16184
22246,-3656,-15744,-2216,-25773,-13534,-10088
22268,24152,-32768,-21632,10849,-32768,-32768
22289,32767,-8800,-20988,32767,-26755,-17130
22311,32767,18548,-3192,15707,11254,8009
22334,-1748,-5752,-3828,-24580,21439,9741
22356,-9180,-32768,-14156,3049,-23119,-19121
22378,25476,-12956,-24796,32767,-32768,-32058
22400,32767,16432,-20144,23951,-21691,-10964
22421,32767,3748,-20600,-7356,4469,-10075
22443,21416,-10476,-21476,1644,2073,-12225
22466,28728,-1736,-23040,20581,-12362,-19330
22487,32767,11508,-20744,11796,-1104,-7385
22509,32767,4756,-19256,-2041,26238,4659
22530,12972,1172,-15508,2316,25919,1099
22552,11840,5584,-10868,2063,7995,-15785
22574,26460,348,-11036,-9014,6471,-17154
22597,30208,-7812,-12080,-478,22492,-7788
22619,11600,8160,-7392,5546,26435,-4699
22641,13152,7968,-5180,-14592,10343,-20106
22663,28640,-12700,-9316,-16273,14410,-13965
22685,19716,-11196,-9524,8724,30480,6401
22706,7412,7720,-4600,10395,19062,1867
22729,16904,5380,-2260,-5409,19209,-2413
22751,8164,12,-2692,-4155,30122,3918
22772,-216,2864,-1004,404,14444,-795
22794,10708,8232,156,3578,9929,937
22816,5620,16740,3788,-6127,21679,8195
22839,-8512,12128,2848,-21876,17769,4455
22861,212,-5492,-2916,-19787,-3501,-11574
22883,17180,-3988,-1088,-3778,-2230,-1726
22904,7788,9804,4388,-7808,18017,9341
22927,-13096,7792,2596,-22710,8985,-748
22949,632,-8680,-2484,-18535,-16157,-22207
22972,17832,-452,-2104,-1662,-12413,-9265
22992,12372,13804,1892,-13225,6011,9534
23014,-4576,3248,56,-29983,9228,10788
23037,-6000,-15940,-4112,-24502,-9343,-2917
23059,8352,-18444,-4536,-3757,-16216,-5543
23080,6964,1872,1572,59,-4165,372
23103,-5124,8544,1148,-22468,-6240,-2588
23126,1304,-19908,-7640,-32768,-16700,-7841
23147,13068,-32768,-10592,-3061,-20420,-3503
23169,11536,-4968,-1124,18558,-12778,-2462
23191,384,9788,2820,-15558,-8576,-233
23213,2700,-23984,-10724,-23129,-20264,-10004
23236,18092,-27772,-13900,14512,-31902,-11412
23258,30472,-644,-6536,16891,-17757,-1375
23279,12580,-4900,-5384,-12037,-821,6780
23302,9780,-32768,-16680,-2218,-23839,-8693
23323,32767,-21684,-21912,32767,-32768,-21003
23345,32767,6232,-16596,24424,-11834,-11262
23367,32767,-1804,-15852,280,6827,7430
23389,19960,-25944,-16700,2987,4441,747
23411,23212,-20684,-26628,32767,-16242,-32768
23433,32767,21516,-26272,32767,-18921,-28615
23456,32767,19592,-23804,4197,12139,-8389
23477,24464,-2804,-22744,502,32767,7808
23499,4148,-8216,-20728,18812,13294,-9275
23521,21392,8448,-21996,32767,-7906,-24480
23544,32767,22156,-17444,16870,11312,-8776
23563,18660,9684,-15292,-921,29648,7344
23586,5376,580,-12064,12134,15967,1630
23609,14028,12792,-9732,18031,-2692,-9943
23631,27640,17164,-7596,1404,6014,-9242
23653,22152,7620,-7608,-11167,19264,-4876
23675,13612,96,-6120,-8044,15741,-9119
23697,13752,1700,-5316,-5828,7043,-15945
23718,24648,360,-6312,-7275,5644,-20799
23741,27680,-144,-6556,-7877,20520,-8379
23762,9164,2892,-4096,-4849,26674,1321
23784,5276,7796,-3256,-1542,8945,-4452
23806,17436,8404,-3636,-6295,7675,3676
23829,15956,3564,-2820,-6368,21901,16941
23850,-672,8208,-280,-2384,20245,14047
23872,-1252,9820,232,-5629,6896,2826
23894,8484,6740,-60,-10151,4655,216
23916,10668,2252,212,-10022,9644,3446
23938,3524,4324,828,-5264,10018,7933
23960,5068,6536,-356,-5944,1654,6026
23983,10480,6320,788,-9112,6034,7090
24004,1144,11860,1948,-13183,11306,7770
24027,-1020,7564,-276,-29096,-1655,-2907
24050,14172,-12540,-4968,-24967,-4048,-77
24071,10796,-8324,-2316,-8709,6980,14014
24093,328,1860,1316,-12528,6454,10788
24115,-1096,-1288,-160,-22602,-1763,-3444
24137,3284,-7120,-1840,-21364,-6407,-9196
24159,7320,-10620,-1440,-17290,-6249,-6644
24180,-2092,-6288,1600,-17714,45,-10469
24203,-7984,-9456,-2920,-21391,-16295,-20401
24225,12508,-18888,-9408,-6741,-29861,-20877
24247,29400,-10080,-4620,6101,-14245,-1609
24268,3280,3256,3876,-14851,11439,19549
24292,-17588,-21824,-3892,-28491,-13433,408
24313,5508,-32768,-14240,6855,-32768,-21302
24335,32352,-13596,-17336,32767,-32768,-30891
24357,32767,9952,-9732,11116,-17240,-12803
24379,27052,-9704,-7900,-8347,8245,20326
24401,1268,-29908,-12484,5798,-10131,1921
24423,32767,-21712,-26188,32767,-32768,-32768
24445,32767,11864,-22812,32767,-11620,-18334
24467,32767,9672,-14028,4359,32767,23714
24490,-9804,-21372,-12540,-1180,26905,15666
24511,-612,-23924,-24504,32767,-30503,-32768
24533,32767,25140,-32768,32767,-29343,-32768
24555,32767,32767,-25896,15612,19818,-548
24577,18004,8836,-27372,-2442,22403,1133
24599,26780,3788,-29316,27791,-4387,-26431
24622,32767,32767,-22780,22352,9447,-10933
24643,26092,27560,-16656,-17782,32032,12470
24665,8192,-3664,-15828,-12311,21690,6025
24685,12704,1288,-9308,5888,4050,-8287
24709,20096,11452,-9248,-5242,7013,-10678
24732,21184,7336,-10712,-11277,17276,-13776
24753,18236,5888,-9844,-10961,14664,-13974
24776,20448,3316,-7112,-10301,20577,-1302
24796,5712,5248,-3272,-9145,24854,3038
24818,5552,4036,-3384,-13077,9233,-9429
24840,18848,-5388,-4860,-7142,12243,231
24863,10312,1296,-1580,4636,23403,16067
24884,-3132,14608,3080,2842,17283,13471
24907,-1096,12844,3044,-13789,5223,3250
24928,9124,416,-1104,-10588,4233,3337
24950,7512,5732,492,-1591,8830,7534
24972,1092,10468,1732,-9047,8232,8581
24994,748,1168,-852,-13470,1534,1890
25017,6776,1928,-2860,-59,-2654,-4793
25039,9732,19816,1324,-9244,1090,5363
25061,4692,12520,-1664,-32768,9426,14611
25083,-1160,-8892,-5144,-32467,5060,11179
25105,3828,-14664,-3872,-12616,-5162,5816
25126,6212,-3196,416,-8045,514,12797
25148,-3024,-80,1736,-19596,4637,7657
25172,-5540,-12756,-1652,-22298,-7251,-4566
25193,5764,-17616,-2908,-6529,-15997,-5858
25214,7288,208,584,1344,-10175,5380
25235,4352,3388,-1440,-20770,-13576,5300
25260,10444,-18128,-8460,-26520,-16602,-1285
25282,17572,-26736,-6664,-5293,-13149,-2643
25303,8152,-10236,-3644,4467,-8803,-297
25326,10496,-3788,-8192,-5053,-23693,-12830
25347,29872,-14536,-11264,-9904,-20502,-12761
25368,25928,-20188,-6372,-5251,4293,878
25391,-208,-22124,-4816,-17,-1101,-3789
25414,6364,-22768,-10460,14291,-27153,-20430
25435,28064,-8768,-18008,23091,-32768,-32768
25457,32767,5280,-21044,19767,-21025,-26323
25478,32767,4360,-17272,8459,11597,4142
25501,20760,-8056,-10560,8961,22619,21481
25522,2832,-11540,-9892,19875,4493,-3905
25545,17084,-972,-16324,28499,-22471,-31200
25568,32767,7592,-21820,24247,-10935,-19557
25588,32767,8860,-19524,15465,20020,6079
25610,14768,7048,-18088,16215,6811,-4313
25633,27348,8412,-16968,18062,-2206,-14862
25656,30152,12696,-16464,13357,13066,-7492
25676,19052,9824,-15100,4465,17752,-5168
25699,16828,4296,-14188,5109,11537,-8490
25721,21556,6540,-12876,5792,9694,-3107
25742,19004,5884,-9424,-543,19670,5571
25764,7836,4240,-7392,-493,16000,-2317
25787,11704,4224,-7836,-907,664,-12268
25808,30412,-1284,-8072,3621,2633,-5532
25830,24308,7340,-4292,8722,21021,7337
25852,8280,15216,-1224,-1752,18972,-2785
25874,9616,7784,-2620,-15106,3811,-15555
25897,24824,-3976,-6052,-11905,3033,-15845
25918,25328,-4404,-6540,1362,16281,1050
25941,12756,9520,-4076,7812,19187,9421
25962,7704,16864,-1892,-7507,14877,1953
25985,9636,2944,-3436,-18760,14273,-904
26007,6484,-5048,-3368,-5997,14142,5879
26028,592,8160,-804,6462,9152,8075
26050,1236,20424,-888,-5286,3757,4350
26072,7784,13236,-3236,-23262,2677,1386
26095,9160,944,-2496,-22151,8962,1276
26116,-396,4588,-320,-15314,9619,-589
26139,-524,6368,-1436,-19468,-541,-5573
26161,7832,1756,-3504,-19779,-2936,-5932
26183,8448,1092,-2216,-20264,2822,422
26204,1812,-2028,-832,-21287,5195,998
26226,-5280,940,1576,-23307,2355,-21404
26250,1852,-10392,-2632,-28367,-10924,-32768
26271,14004,-16376,-4048,-11825,-8069,-30238
26293,6048,-3492,448,-198,-4484,-10081
26315,5700,-956,264,-7275,-12169,-15401
26338,12704,-10820,-3480,-5084,-12233,-16941
26360,8660,-3376,-3680,8801,-13097,-13662
26381,15248,3984,-5004,6954,-22831,-11813
26402,30172,2792,-7452,2274,-20000,-7433
26423,30552,-3228,-5836,2390,-577,9168
26446,9876,-5896,-3692,2832,-206,13010
26469,16188,-14884,-7892,12835,-20256,-8531
26491,32767,-2212,-10832,26406,-20217,-10460
26512,32767,9260,-8208,14719,445,8664
26535,20776,-4288,-6804,1734,4022,16401
26557,18432,-17188,-11820,20422,-10424,-6339
26579,32767,2748,-17872,32767,-16213,-18511
26602,32767,14288,-15420,22736,5151,-2041
26622,22520,6604,-17636,20379,12058,-5615
26646,27764,15364,-21552,31540,-7726,-20145
26667,32767,26588,-22524,23340,2745,-8936
26689,32767,22268,-20248,5168,24767,6480
26711,14620,8020,-17780,6069,22023,1168
26732,18132,8604,-17980,16006,6606,-12692
26755,23676,17904,-15872,11483,14185,-3828
26777,13844,14784,-13932,976,23179,2837
26798,5368,11988,-10660,3956,16123,-2977
26821,9716,17124,-7324,3652,6069,-10876
26843,14984,18944,-6920,-6099,8095,-9599
26866,15816,11396,-9016,-11272,12009,-9118
26887,10736,10516,-6612,-10528,13426,-10762
26909,12124,8668,-4280,-13470,9651,-14801
26930,13620,2736,-4108,-9307,14378,-5879
26952,6904,9344,-2780,280,13657,3119
26975,8056,14272,484,-7207,10254,7840
26996,5920,4624,804,-12494,16275,13069
27019,-1492,4204,40,-1678,10766,4064
27041,3272,16604,264,-2340,-2411,-6203
27062,16144,14488,-152,-17185,5108,-1442
27084,3260,1800,532,-21016,18243,9882
27106,-6580,1428,112,-4002,3778,-107
27128,3928,20104,824,-1014,-9178,-2699
27150,12240,17768,152,-24962,874,4362
27172,936,-4512,-3604,-30090,8298,7941
27195,-960,-10240,-5368,-12068,-11512,-8556
27216,15364,820,-4552,-3202,-18713,-8342
27239,17644,8572,-1364,-12168,-741,2974
27261,2368,1904,-532,-19720,6134,7738
27284,-4148,-8472,-1336,-14026,-7716,-459
27305,8832,-16012,-5172,2157,-21401,-4700
27327,17508,-5956,-4408,17952,-14003,5827
27349,12712,19444,-1672,16343,-7399,9350
27370,8808,21304,4096,-27080,-528,9902
27393,2468,-15992,-3152,-32768,2076,14691
27415,-4368,-27696,-4688,-1082,-18089,15123
27437,12820,-7956,-7300,19765,-32768,2256
27458,25076,7392,-960,3233,-16484,8533
27481,15660,-11424,-6176,-25658,-3596,11032
27503,12576,-32768,-10240,-4121,-13618,7117
27525,17644,-22928,-10976,29215,-24383,-2863
27547,30344,-484,-11744,20492,-25275,-13065
27568,32767,-9408,-11952,655,-9051,-3926
27591,30516,-22252,-14164,12549,5068,12342
27613,21720,-12108,-16080,32767,-5347,-5208
27636,30552,10016,-16544,31289,-13468,-19406
27657,32767,9400,-16672,12819,-491,-9721
27680,32767,-1988,-17976,14557,16444,6808
27700,19040,2008,-16408,23956,14042,-706
27723,13980,13696,-14256,20883,1620,-16737
27745,28516,12096,-16580,10842,-6693,-16537
27767,32767,6188,-16668,11963,9798,1724
27790,19868,8052,-15288,16231,14341,10435
27810,17264,12076,-12420,8538,6318,-3898
27833,22960,4932,-11980,-2096,8502,-14096
27856,22716,-3856,-12136,2365,12847,-11762
27877,20040,4856,-9876,13909,10914,-2325
27899,17528,14804,-5744,1681,11241,-7200
27922,18476,8160,-7824,-11519,9582,-17487
27943,23496,3052,-10112,-9928,6244,-26411
27965,28544,4704,-7944,-7803,12210,-15397
27986,18648,5292,-4292,-7733,27945,1237
28009,2088,8152,-2720,-5740,19409,-2331
28030,9708,9972,-1636,-5511,3597,-11749
28053,17184,10796,-752,-10329,13281,162
28074,5848,6932,-968,-13798,20635,11078
28097,-776,2324,-1304,-9539,8900,7844
28119,8540,7024,-944,71,-259,3483
28140,9596,19328,1408,-7667,10636,10278
28162,648,13336,-2448,-26242,11688,8684
28185,2928,-4624,-4140,-23718,5942,1758
28207,572,-1012,-1832,-9693,4986,3127
28229,-160,7372,-528,-14953,-791,2040
28250,6188,324,-3064,-20397,-2342,2860
28272,4956,-2848,-1408,-16102,3095,5742
28294,-2344,-500,592,-15362,992,2263
28317,-884,-2652,-876,-16403,-8589,-4061
28340,9532,-6820,-3460,-14198,-12991,-8635
28361,13748,-7124,-2600,-9053,-4014,-76
28382,520,-164,2940,-8925,1931,2981
28406,-5312,-180,1096,-19486,-12134,-4754
28427,5964,-15536,-3444,-13500,-19295,-860
28449,11092,-14272,-7912,1309,-22604,-2087
28471,20828,-4472,-9164,327,-23238,-6944
28493,28296,-6032,-7752,-7225,-10330,-3550
28515,14836,-11404,-1416,-4926,4825,22709
28536,-6924,-17644,16,-8145,-3216,12803
28560,2824,-30864,-9960,1285,-32768,-24723
28581,32724,-22892,-18536,32767,-32768,-21317
28603,32767,16952,-9480,32767,-12366,4878
28625,23148,10420,-2436,-19950,534,11583
28647,9984,-32768,-13308,-12919,-609,19633
28670,5692,-32768,-20536,32767,-26952,-16628
28691,32767,2816,-32764,32767,-32768,-32768
28713,32767,20432,-28020,27453,-21760,-18037
28735,32767,-5308,-25356,4847,20040,12810
28757,12108,-18308,-23988,31342,24600,12860
28780,7884,4180,-21580,32767,-13780,-20374
28801,32767,984,-24804,21886,-10335,-15346
28823,31068,-3532,-25976,26383,20410,4509
28845,10544,10984,-23552,32767,7511,-6864
28868,23900,20276,-18932,18974,-2908,-23385
28889,29264,16796,-16188,1444,16312,-11739
28911,11852,10944,-13544,-4038,22907,-8926
28933,10284,13776,-11152,-2166,7228,-12840
28956,18144,12840,-6944,-17876,12284,-9105
28977,8672,2672,-11124,-21836,13303,-16578
28999,18808,3412,-14960,-12183,-4134,-25154
29022,32767,3100,-13292,-18834,4585,-17831
29042,26320,-4972,-11700,-20024,32629,70
29064,2448,-4188,-9644,-6619,26170,-1382
29087,5648,5832,-7052,-1970,3780,-9427
29107,23308,5156,-6148,-9592,6422,-2567
29131,17492,596,-4640,-7156,27476,13963
29153,-3744,9252,-2068,-2443,21373,11846
29174,1600,10576,-1292,-10803,3894,627
29197,8544,3512,880,-17188,11730,8037
29219,-4208,1172,960,-12280,15709,9141
29240,-5800,6620,-288,-7543,-3028,-4001
29263,11980,9336,-1920,-11056,-8327,-5708
29285,12740,10704,-36,-22149,9953,5134
29307,-1260,1044,-772,-30498,9888,-585
29329,2000,-8716,-3160,-21019,-4124,-12643
29352,11600,-1844,-836,-8748,-7108,-10120
29372,12180,7484,2684,-17958,-1470,-2776
29395,6056,-2256,204,-27165,2810,497
29417,5160,-12188,-2080,-17598,-7337,-8641
29439,11936,-9760,-1576,-7225,-10067,-9553
29460,13984,-5248,-172,-6716,-6490,-5278
29482,9396,-7536,-464,-5789,-4944,-5774
29505,11200,-7096,-4448,1553,-13107,-8938
29527,17048,1944,-3872,1016,-10966,-7588
29548,17668,724,-4272,-10210,-6495,-7598
29572,17824,-11252,-5704,-4565,-4147,-2469
29593,14968,-5724,-4640,12805,-5090,6069
29615,13012,6024,2504,7307,-700,14568
29636,1228,-6548,1144,-10824,-1373,11293
29659,6536,-23420,-5612,6389,-19546,-8094
29681,23412,-8072,-8816,32767,-24691,-6945
29702,22616,16320,1112,13875,-6728,12675
29725,10780,-12916,-8276,-17592,-7751,3761
29747,21400,-32768,-19876,20744,-24572,-16396
29770,32336,-1192,-17924,32767,-18336,-8987
29791,29720,15956,-12432,18215,-8186,-1606
29812,31720,-8540,-14960,1892,-2562,-89
29835,22756,-23056,-20008,17854,4092,3881
29857,17324,-11420,-30980,32767,-14893,-24065
29880,32767,15852,-32768,32767,-25591,-27163
29902,32767,25216,-27568,22191,16017,-6464
29923,21764,11844,-23972,6418,32767,17672
29945,-3504,4836,-18788,18218,12091,-3292
29967,19236,16652,-19384,27557,-14783,-25030
29990,32767,29424,-17308,14157,6334,-7038
30012,22416,21956,-13544,-12515,31432,10925
30033,4584,2956,-12684,-14904,20382,-2623
30055,15748,-844,-10888,-1950,3418,-20477
30078,25288,8580,-11772,-2142,13088,-15126
30100,18388,12952,-12256,-8297,21312,-2310
30120,14092,9480,-9244,-13548,20342,1129
30142,10980,3332,-7292,-13507,22173,3711
30164,4544,3160,-5140,-11423,18560,-468
30186,7452,3892,-6052,-11575,6456,-4222
30208,18896,1344,-4280,-10545,9812,4636
30230,8336,5024,396,-8055,24522,20305
30253,-6820,9968,1924,-11500,14700,9581
30274,-716,5468,260,-19777,48,-1246
30296,7548,-4216,-2292,-19870,2079,-3204
30318,5144,-2948,-2428,-12375,3349,-1710
30340,6896,2124,-1480,-11850,-1576,-3933
30363,8908,3868,-1500,-14772,1744,-411
30385,7136,2912,-1056,-18993,-65,-1866
30406,8512,-2196,24,-20314,787,-2193
30429,6528,-4884,-816,-14715,-470,-4849
30450,6492,1368,-1064,-10729,-5596,-6821
30472,10216,2164,-736,-17614,-5868,-6829
30494,6860,-5516,-600,-17561,-1764,15
30517,2632,-7652,-1692,-8200,-8306,-1033
30538,5664,896,-2624,-1769,-15091,-3616
30561,11312,4780,-3252,-11416,-14173,-3692
30583,11396,-4788,-2540,-17909,-8103,-1665
30606,5512,-14708,-4032,-14631,-8545,-421
30628,2416,-15708,-7680,1163,-15257,-4749
30650,10032,-5108,-8280,3713,-26594,-10142
30671,24156,-15584,-9000,-6310,-16794,-2469
30693,14284,-25988,-12172,5185,-4297,6622
30715,10800,-18836,-14776,23203,-19976,-12725
30737,28436,-4832,-13360,26320,-20267,-10813
30758,25116,-5608,-11104,13769,-3042,259
30782,17340,-12812,-17872,20107,-11755,-9548
30803,30848,-5736,-23312,32058,-16767,-14441
30826,32767,4732,-23164,28793,-6485,-9388
30847,32767,5584,-22696,21780,3320,-9816
30868,29876,4632,-23212,22797,6309,-7786
30891,29752,4992,-27028,26588,5020,-11571
30914,31372,14828,-28620,28901,6029,-14273
30935,32767,21716,-26844,17178,15010,-13373
30957,24172,17336,-22416,6375,28329,-3121
30978,12300,12144,-18492,5938,21957,-4413
31002,16196,15504,-17092,11455,10968,-3355
31023,22036,18260,-13420,-3821,15142,3321
31046,21184,2480,-16156,-10805,23333,-3931
31067,17096,2308,-18480,872,19739,-15505
31089,24720,13212,-13680,-6196,14282,-19711
31111,25888,5564,-10004,-21227,32767,-4813
31132,-1988,-3040,-6400,-16754,32767,1280
31155,-4672,-1908,-2328,-3882,10052,-9624
31176,14424,4104,1084,-1561,6105,-2005
31198,12984,9304,2764,-1077,21392,10472
31220,-1432,14132,2888,-7655,18845,8253
31243,1004,7832,2548,-17508,5835,-2020
31265,7848,-1376,3292,-15132,7566,-127
31287,-444,6120,4336,-4706,9529,5139
31309,-2836,16072,3932,-10709,-979,3680
31330,6112,8192,580,-23059,-4120,3257
31352,7664,-3640,-800,-22652,4133,8012
31375,-2372,-5516,228,-15385,5220,6577
31397,-6076,-4392,-852,-13829,-6178,-1825
31419,4728,-6356,-3432,-8693,-14064,-6019
31440,8696,3200,-432,-9050,-5809,5342
31462,256,-1996,-816,-24922,-429,11494
31484,-7036,-14252,-2420,-18465,-7245,3342
31507,-1476,-12960,-3940,-6157,-23993,-7841
31529,11204,-8512,-4872,-2847,-22903,-3810
31550,12108,-5352,-4736,-5264,-15049,1887
31572,8136,-6652,-4144,-7755,-15031,3480
31595,8976,-12484,-4004,-12631,-19073,-6012
31617,15136,-22200,-9060,-3446,-22309,-4584
31639,13812,-18632,-8740,11616,-17626,1445
31661,11620,-14568,-13880,14359,-32768,-18741
31683,32767,-8396,-24008,26884,-32768,-25710
31705,32767,9096,-23868,30189,-25546,-3058
31728,32767,11196,-10728,2724,24296,26365
31749,-2268,-11252,-11260,-11534,23891,22238
31771,2472,-28684,-15660,12782,-24807,-18323
31793,32544,-14264,-19412,32767,-23707,-16398
31814,25584,6744,-17304,30562,2444,-59
31838,13176,9124,-18736,10972,-8394,-14080
31860,31208,-7884,-23176,6015,-15725,-20597
31881,32767,-11584,-23896,23856,7176,-2688
31902,14864,2624,-19636,26793,14855,5946
31925,13852,2644,-19964,15601,-4585,-10410
31947,32767,-4192,-22764,17444,-244,-11326
31968,31096,980,-21588,19126,23314,8126
31991,16624,2540,-18464,14112,23503,5760
32012,14952,2432,-13920,9925,16492,-3017
32035,19472,4856,-14088,5269,15902,-10471
32058,25732,-2644,-14996,-3167,19076,-10136
32079,24596,-6172,-13740,4842,29549,-1487
32101,12548,3624,-8040,6583,32767,-3832
32122,9348,3528,-5600,-5152,22600,-13166
32145,17016,-5296,-4588,-5903,22427,-8312
32167,11248,-1416,-3072,5729,28389,-2220
32189,5008,13380,704,3236,19065,-8481
32212,10292,15100,2272,-13014,16109,-12282
32232,6960,6652,3616,-20877,21724,-4639
32255,-936,564,3532,-15346,16795,-3919
32277,-964,4916,4164,-5631,4695,-1741
32298,3828,12480,3972,-8107,706,3178
32320,4412,13504,2240,-19789,2939,2647
32343,4036,3416,-464,-29563,2043,-7
32364,4028,-6784,-1544,-27276,-308,-6228
32387,3904,-7108,-1012,-16183,-2318,-2367
32409,2372,-552,852,-12166,-2540,1777
32430,-1360,4060,-500,-14496,-4259,-6
32453,2036,5352,-3616,-24049,-12218,-6521
32475,11772,-10344,-5960,-31161,-5868,-1203
32497,-1360,-14796,-3592,-17707,2483,7505
32519,-6040,-11108,-4504,-16006,-17632,-13751
32542,11788,-18832,-9216,-11879,-22756,-15149
32564,17792,-18428,-7544,2228,-13896,1527
32584,6476,-4312,-2748,1083,-7007,2913
32607,828,-7728,-6112,-19493,-20925,-17735
32629,21684,-28064,-16920,-7462,-31319,-27736
32651,32767,-26800,-14564,20404,-16399,-290
32672,16244,-2712,-7136,25547,-736,12304
32695,7728,1956,-9300,-1189,-20880,-13238
32717,32767,-21432,-17972,-306,-24488,-19020
32738,32767,-22160,-18828,25776,-688,-4299
32761,18316,-3732,-16332,30785,-6878,-7648
32783,28924,-2928,-16744,24320,-11579,-12242
32805,25964,-224,-19488,29481,3641,-7689
32827,19132,13284,-20600,19455,-11520,-29691
32849,32767,1648,-31004,8001,-13048,-24257
32871,32767,-7844,-32256,22646,27431,10769
32893,15900,6200,-22620,32012,32767,21649
32915,-2592,11668,-16124,20405,15812,-6611
32936,24088,4128,-18984,12814,-6099,-24515
32960,32767,-2648,-22552,14123,18231,-3991
32980,22056,7208,-18876,18733,32767,7879
33002,14244,8844,-10748,7623,25999,-2956
33024,11684,2608,-7088,4965,24045,-2966
33047,9708,9032,-4756,7531,14473,-8870
33068,19120,13672,-2836,-3953,12393,-9161
33090,18452,4376,-1272,-12674,25549,3558
33112,976,3916,1540,-5631,24516,2668
33134,4112,6340,3092,-7142,5916,-10183
33156,15412,4304,2296,-11393,7102,-8101
33178,12560,6504,4144,-8957,15584,-4627
33200,3952,9604,4752,-11837,13098,-3558
33222,5156,5348,3060,-14331,3402,-881
33244,7964,5476,2612,-10095,3032,4799
33267,8448,10732,1808,-15458,1343,1809
33288,12896,4340,-864,-26273,2828,-6112
33311,9000,-3956,-1108,-21563,9958,774
33333,-3792,-596,932,-16908,3511,3592
33354,952,-1836,-636,-12285,-10348,-5274
33377,9588,3228,-2748,-11522,-15072,-3356
33399,14760,4228,-3484,-19990,-5938,-4222
33421,8868,-3848,-4464,-26439,2510,-8454
33443,2920,-13124,-5280,-19187,-2106,-10097
33465,6240,-13388,-4376,-2173,-6858,-6392
33487,7804,-2980,-1768,3660,-5939,2623
33508,7436,476,160,-2945,-2677,3364
33530,4820,-2148,-1304,-9043,-2297,1399
33553,9260,-10184,-948,-10264,-5375,5613
33574,5692,-10576,1844,-625,2252,10345
33596,-11776,692,2728,-12055,-8742,-822
33619,10672,-19888,-7048,-19726,-32768,-27944
33641,32767,-28712,-10528,6301,-19497,-5032
33663,15764,-7596,-3840,19273,1235,21523
33684,1876,1404,-2172,3217,-17697,-2586
33707,25752,-15840,-13188,-3168,-31371,-23535
33729,32767,-21504,-15448,16375,-16024,-663
33750,23980,-6384,-7780,23277,8681,20183
33772,236,572,-7580,12404,-9953,-2565
33795,25284,-6248,-17932,8586,-32768,-26811
33817,32767,-9248,-20584,15089,-15940,-4900
33839,28972,-4572,-14448,15579,21744,21195
33860,2008,-7684,-15020,11639,-4429,-2600
33883,32704,-13516,-25084,22676,-30665,-30930
33906,32767,2936,-24116,26692,2862,-13168
33927,21664,9400,-22652,10862,17844,-252
33949,25456,-2812,-27184,9707,-8690,-20202
33971,32767,936,-30200,25880,6173,-10654
33993,32767,16488,-24572,17574,32767,12290
34014,9880,14032,-17524,-3903,32767,6149
34037,9660,-5888,-14840,-3767,19038,-11929
34059,21908,3108,-12888,11901,15251,-18828
34081,27040,11080,-10084,-3248,29446,-7856
34102,11788,1304,-8012,-10770,32767,6915
34124,-60,464,-2228,-5196,23217,-5275
34146,9356,2684,1652,-4081,14985,-10561
34168,8776,6408,3256,-4848,21023,-4410
34190,2768,8716,4240,-6291,15805,-5454
34212,6716,10632,6256,-6835,9724,-6655
34235,5168,12600,6240,-13012,11940,626
34256,2164,6380,3608,-14953,8051,5932
34278,1376,4660,4804,-7540,4848,9658
34300,260,12416,4440,-4818,-2359,5349
34322,8268,16132,796,-17059,-6345,2406
34345,10952,6412,-1320,-28891,7413,8272
34366,-5400,-524,-1040,-29465,10363,5924
34390,-7328,-7104,-2272,-25681,-6145,-6005
34411,3048,-10020,-3384,-16175,-11815,1144
34432,4280,-6608,-2584,-9748,-4253,12409
34454,-3972,308,-3060,-15804,-6293,-766
34477,2300,-6824,-5924,-30458,-16307,-22440
34499,14056,-23492,-8244,-23545,-14893,-17628
34521,11796,-22468,-5720,1605,-3853,7312
34543,-3160,-1356,-2072,5100,-10388,2165
34566,10076,-5676,-7760,-14446,-25344,-19185
34587,28508,-19884,-12464,-7659,-17138,-11180
34608,21844,-15204,-5472,10889,5710,16987
34630,-6140,928,168,3580,22,6848
34653,6172,-15764,-9904,-10508,-28825,-17309
34675,32767,-28596,-17072,14448,-21095,-14268
34697,24004,-1220,-9676,25387,-3133,-459
34718,14976,3136,-7356,-1093,-10808,-8200
34740,28308,-20556,-15120,2382,-15045,-4894
34762,26840,-19068,-15072,26238,-4525,558
34786,15368,-6680,-14864,25204,-13367,-7478
34807,31852,-676,-20280,28470,-25065,-23758
34828,32767,8972,-18264,18996,-4912,-9264
34850,23844,-1152,-17448,3709,14383,6199
34873,13060,-15864,-21576,16227,-4952,-17001
34896,29484,-7316,-28132,32767,-15413,-24190
34917,32767,22016,-25516,31420,-4803,-16353
34938,32767,8872,-26868,-4260,11358,-7770
34962,32767,-17716,-29924,12140,30826,13948
34982,16804,3516,-23736,32767,32258,13358
35005,10492,25516,-12760,11166,21289,-11764
35027,21612,4528,-15652,-18456,13957,-23875
35049,32524,-11752,-16228,-1939,22799,-10737
35070,18716,6428,-8532,15703,32767,5110
35093,-3380,19924,-820,-4930,32767,-6752
35113,3472,2216,-1012,-17604,11423,-19317
35137,14972,2636,212,-3093,10594,-15567
35159,10992,15084,3316,-8126,18882,-1190
35180,4600,8236,2104,-16166,22805,2598
35202,-5192,5064,3240,-9043,16342,-2177
35224,-560,7468,3004,-9543,830,-13603
35247,6764,5800,2648,-12169,4638,-1602
35268,-1484,6732,1324,-11620,7392,9709
35291,-1956,7844,-416,-11729,-4904,5625
35313,6872,9668,-1332,-16243,-6668,5255
35334,8168,6068,-2736,-26350,2181,1222
35355,-96,-2504,-3068,-31106,4948,-5064
35379,-1576,-10380,-3852,-22401,-6353,-11222
35401,6604,-8572,-4004,-7720,-13732,-3617
35423,12360,-2692,-2080,-3113,-5266,15724
35444,-1056,1732,1008,-10052,5751,20606
35467,-11528,-5304,-2292,-21915,-6684,-923
35489,1008,-20664,-6676,-13165,-23647,-8924
35511,17680,-13856,-6304,11107,-23434,6844
35532,17400,6744,-692,110,-7857,23052
35554,10760,-8904,-5416,-28138,565,18874
35577,7588,-31988,-7300,-10161,-5761,10902
35598,5696,-16120,-1100,9084,-11531,2315
35620,8308,-6960,-2716,-2680,-16908,1888
35644,16840,-18524,-8592,-7410,-18602,6907
35664,20948,-20068,-8280,2703,-12597,5149
35688,11172,-12932,-6680,-3218,-11395,-9030
35709,19376,-21108,-13912,-3852,-26216,-21097
35731,32767,-24424,-19736,10715,-23893,-9597
35753,32767,-12808,-15304,21713,-806,5726
35775,9904,-1692,-11696,6720,-309,-2855
35797,22624,-16020,-18084,-1672,-23450,-26009
35819,32767,-24944,-21528,13814,-7053,-6410
35840,15504,-13452,-17584,21168,8603,5648
35863,10136,-11624,-22900,18974,-18542,-32231
35885,32767,-3372,-32768,32767,-31042,-30824
35907,32767,7688,-31460,23718,10140,-9555
35928,28848,968,-26112,12450,32767,22875
35951,1980,-8360,-19892,14129,24669,8116
35973,19140,-3516,-18476,32525,5852,-11807
35996,24776,16700,-13792,21960,18661,-5825
36015,15680,11288,-10760,-2633,27290,-3578
36038,9316,-2008,-9296,1196,19184,-5791
36060,14396,4464,-6044,9415,10703,-13412
36082,18556,11512,-1448,-1854,16526,-9993
36105,12728,5044,1656,-14018,24549,-8273
36126,5972,-5540,-176,-11861,18808,-9468
36148,11240,-4024,-716,3814,8570,-10593
36170,17404,9828,2740,3375,12313,-3946
36193,9500,11184,4320,-9721,24993,2722
36214,-3656,4428,2972,-11059,17176,3195
36236,3184,-1140,884,-3948,892,-4708
36258,11808,8980,-300,4925,3775,956
36280,8696,20380,2048,-13380,12061,3334
36303,2716,5872,-1624,-31358,13125,-351
36324,3084,-9168,-3732,-23366,2664,-1399
36346,10864,-10472,-4404,-6182,-755,2947
36369,8964,1720,-380,-4403,6785,8969
36390,924,5976,460,-14830,7597,1127
36412,1568,-2916,-1752,-19724,423,1016
36433,5752,-13104,-3440,-13681,-2250,9868
36455,5180,-8816,-1192,-1055,147,11377
36479,-1464,7388,1592,-5315,3431,6529
36500,-5348,3444,-176,-28692,-5280,-656
36523,5980,-23272,-6972,-26418,-12593,5459
36544,12992,-29364,-5616,2733,-6328,18240
36567,-3420,-4428,1784,10228,2677,22336
36588,-10760,7892,136,-15978,-16371,-5220
36611,15244,-16912,-8932,-32618,-24576,-13751
36633,25548,-32768,-10292,-10823,-6648,19394
36654,324,-19212,-180,11227,7658,32767
36675,-18580,-4396,272,-11142,-13201,3251
36700,11016,-28364,-12644,-16400,-32768,-27086
36720,32767,-31900,-12328,2490,-19086,-88
36742,10552,-18916,-4896,-491,5275,25515
36765,-4908,-27324,-9868,-15382,-15648,-1042
36787,23460,-32768,-19144,3246,-27524,-24056
36809,27096,-21728,-18180,28767,-16938,-25454
36831,32767,-5000,-18548,4055,-19444,-30181
36853,32767,-27340,-23272,-5303,-5683,-19035
36875,29316,-28812,-22984,22026,10730,-8792
36897,15752,-8872,-23884,32469,-5712,-23163
36919,32767,5140,-27544,24215,-16147,-29973
36941,32767,2000,-29160,13711,13896,-4007
36962,21972,6768,-20992,15166,30754,13406
36984,7344,7804,-13172,11176,15228,-3999
37005,19188,12736,-11148,9390,2858,-25034
37029,29468,15780,-9864,-2111,15215,-22992
37052,19216,11248,-7352,-20205,22908,-19016
37073,14916,-3904,-6064,-22748,23583,-23218
37095,14268,-11204,-3708,-13660,19324,-21784
37117,15212,-9868,-2492,-1866,18855,-14411
37139,10964,3100,836,3519,18534,-6221
37160,10172,8932,2828,-4415,18233,-7123
37183,6828,8024,3500,-5303,18900,-4085
37204,1516,10700,4780,-6719,16181,-1380
37226,4048,6048,3524,-8963,7199,-2449
37249,7888,4344,1368,-832,7409,1738
37270,4264,14520,3012,-1171,6461,7834
37293,3336,11944,3504,-14677,7876,10008
37314,-240,-2228,1356,-18596,6425,6664
37336,108,-9372,-688,-6614,-2508,4061
37358,6016,-5092,-1160,4788,-6170,3706
37381,7480,172,-2012,1553,-5447,4310
37403,10504,11740,-2516,2819,-8315,3304
37424,19612,14000,-436,-23832,1681,9001
37447,5936,-11504,-4280,-32768,21051,25326
37469,-11244,-20360,-2788,-11955,544,13704
37490,3012,-10076,1248,795,-18482,-1278
37513,12724,-4072,300,-6773,-7442,7298
37534,9944,-15632,-4424,-7958,-3561,9640
37556,8952,-14332,-4140,5356,-7826,11251
37578,12288,1432,-836,5243,-8535,11714
37601,9120,3376,1476,-17444,3466,15454
37624,-344,-19552,-4568,-24813,-1150,11757
37645,5348,-29832,-7248,-967,-16145,5778
37667,15560,-12008,-4164,14837,-14351,9147
37688,9200,8056,64,-1049,-1015,13959
37711,2980,-7272,-3824,-32768,-7261,2692
37733,8980,-32768,-10868,-21351,-13069,4808
37755,11748,-32768,-9576,10047,-13157,9057
37777,10416,-13164,-5792,10865,-12793,7053
37798,9416,-10956,-5380,-6772,-11203,2989
37821,9856,-27184,-9308,-9153,-10005,2834
37843,5288,-32040,-11576,4328,-16718,-2360
37866,15268,-19392,-14292,16707,-25666,-20425
37887,29104,-7016,-12056,4678,-20915,-17409
37908,28940,-18052,-11912,-7431,1609,694
37930,6396,-27184,-11076,1660,4678,7639
37953,4948,-24008,-13616,16501,-17465,-15435
37974,23780,-10032,-15372,17972,-23393,-24512
37997,31612,-6456,-15020,5281,-3859,-14772
38018,18772,-14264,-16052,614,3511,-8086
38041,19148,-19328,-16904,13405,-3106,-12204
38062,21584,-9008,-14520,19292,593,-9836
38084,16836,-4556,-11640,11839,6644,-7104
38105,10960,-7708,-10560,9459,4080,-9095
38130,12316,-5668,-9392,10949,-1239,-13647
38151,18244,-6460,-11108,9274,489,-14976
38173,18404,-7788,-10560,10444,6219,-11204
38194,13052,-6372,-9076,10067,7377,-8852
38216,12808,-2344,-9172,12625,521,-12084
38238,18720,3100,-8568,8328,818,-13746
38260,17744,2608,-7072,-2329,7564,-13896
38282,14516,-4216,-8764,-3014,6561,-14062
38304,16812,2248,-6256,1558,3907,-17393
38326,17276,6016,-7264,-2688,5238,-16047
38348,24148,7704,-9092,-6186,1677,-15284
38370,28732,1512,-8576,-14426,12802,-7954
38393,17532,-9672,-8144,-10266,20779,-3190
38414,10252,-1652,-8044,1538,3706,-18200
38435,30636,684,-7584,-6132,-409,-22252
38458,32292,-6164,-8968,-4639,21523,349
38481,15608,-1128,-7472,7820,23484,8225
38502,13564,7908,-5076,7222,14690,847
38524,18764,9732,-4256,1794,16605,-2738
38546,13260,15056,-2760,-307,23568,-926
38568,7748,16752,-3324,-8627,16143,792
38590,13940,7564,-4888,-12686,11563,7823
38613,16356,5144,-5116,-4756,14735,14864
38635,10752,15480,-2312,-6915,19944,16322
38657,6172,9104,-3308,-23875,19926,9101
38678,6564,-9892,-3892,-21448,16385,11156
38701,2212,-10044,944,-3363,15174,15839
38722,-2888,3068,1244,3306,3541,13927
38744,9712,6100,328,-7295,-1971,3834
38767,17836,-3816,1088,-16253,13507,6888
38789,1796,-11488,2220,-13261,22655,12505
38810,-8412,-14888,2164,525,5892,6240
38832,632,-4320,3080,12095,-7714,865
38854,8648,7428,5636,1977,-3646,7202
38876,11360,-48,2280,-11242,3981,12568
38898,5268,-7996,3208,-9891,11547,13321
38920,-4560,-6056,6508,-7777,5087,4137
38942,-728,-4608,5664,-8221,-6030,-1972
38964,12140,-8284,2876,-9954,-5274,3565
38987,5928,-6108,3520,-10150,5538,6969
39008,-2952,-1972,5580,-16014,-776,4261
39030,3700,-7788,2944,-21086,-10327,45
39052,9208,-17568,-112,-19705,-3590,6430
39074,3900,-21824,-1700,-11808,-2041,6208
39095,3224,-15992,1896,-2703,-8773,2526
39118,3956,-8132,1976,-5159,-6963,6887
39141,5228,-12512,-3428,-10974,-9192,8542
39162,9356,-18704,-3172,-6454,-8083,7456
39184,2716,-7964,1384,725,-1187,8872
39207,-9536,-1280,2320,-16047,-2749,12649
39230,-5396,-25928,-6456,-27553,-16449,3728
39250,7124,-32768,-8880,-1462,-20915,2790
39272,8616,-16124,-6248,18856,-15263,8496
39294,3712,3920,-3272,-4303,-13370,4314
39317,12352,-21696,-11160,-25633,-8258,3752
39339,5216,-32768,-10448,-1144,-205,14177
39361,-1224,-19472,-7380,21481,-15015,6479
39383,10776,-2260,-4600,4981,-14509,2452
39406,11128,-16960,-5848,-16702,5168,12022
39427,-5764,-32768,-11372,-12777,-3965,11084
39449,14000,-32768,-16280,14331,-26404,-13024
39472,31684,-20208,-10396,16534,-6748,-5205
39493,15880,-18652,-7044,-888,15260,12919
39514,-1876,-25048,-5320,-2722,3402,-159
39536,4348,-23688,-7444,674,-16474,-20762
39559,23872,-27232,-13704,-7778,-19003,-21507
39581,32767,-32768,-22480,-6582,-12079,-16271
39603,32767,-32768,-15392,25565,32767,12062
39624,-17864,-8040,-1816,26534,28154,9461
39647,-5364,-19472,-7640,-2965,-30263,-32621
39669,32767,-32768,-13936,18262,-18784,-27258
39691,15408,-8344,-5964,27190,16905,-3738
39713,-10380,-3424,-5348,9348,-4028,-20197
39735,5516,-13284,-12972,13594,-30602,-32768
39757,26528,-648,-15340,19191,-30805,-32768
39779,32767,-3268,-13944,-1746,-8953,-27320
39801,28596,-21292,-14952,1637,18752,-8746
39822,1184,-10716,-7388,23845,18871,-8766
39844,-4480,5360,-2428,14664,-4461,-25490
39867,15792,-2952,-5436,2820,-12355,-26710
39888,22760,-196,-6960,10020,-1132,-20096
39911,21956,9320,-3808,1035,6078,-21062
39933,18084,-1140,-2356,-14345,16123,-15034
39954,1624,-14508,-2172,-6549,16050,-11232
39977,264,-8456,-4436,11381,-12319,-28041
39999,27048,9072,-6028,16527,-23246,-32768
40021,32767,20452,-3480,-3243,6302,-15760
40043,16368,10964,-5936,-17095,22809,-6056
40064,7228,-496,-6760,-8143,5479,-8768
40085,20172,1264,-5060,3570,-1721,-6377
40108,19624,9596,-2956,2494,15817,4273
40130,5040,9000,-2268,-9089,16654,3771
40152,8344,-2584,-2944,-5727,2675,-2477
40174,16432,3104,-768,5405,2740,2530
40197,16756,10992,-2440,-3471,7603,3611
40218,19176,2832,-6340,-13550,9783,371
40240,21140,-6320,-5428,-5170,16557,1949
40262,8200,5860,-2056,9318,21090,11312
40284,1488,13144,-2116,-3123,6738,1119
40307,12380,-5028,-1924,-9621,3934,-9333
40329,7288,6832,-256,10039,7223,-6607
40351,16268,28620,-3900,-5580,-8840,-11808
40372,32767,16492,-7312,-28264,15952,3031
40394,12188,1856,-6188,-29307,32767,24039
40417,-22340,-244,980,-25797,29602,5255
40440,-7992,-10640,-512,-17028,-10317,-15919
40461,24212,-7220,-3064,-889,-12766,-8030
40482,21132,3372,3264,-3382,24048,8885
40504,-14328,10044,6800,-17377,28499,6284
40527,-15432,-6008,3572,-27030,-10836,-12859
40549,16852,-25084,-1656,-4803,-25122,-12212
40571,25040,-2636,3840,20720,700,7609
40593,3352,27144,7672,-2522,9352,8188
40614,4380,4652,3916,-32768,-372,-4792
40636,8932,-25176,1852,-17963,-4195,-1854
40658,5364,-6200,4712,12580,-11604,1994
40681,14712,9572,3940,-5148,-17758,1790
40702,27260,-5064,712,-19331,-4238,7001
40725,15368,-12300,2556,-10180,12700,15675
40745,1100,-6076,5572,-6930,3277,12101
40768,10072,-11104,2892,-7448,-7453,9213
40790,15704,-10092,4684,2959,882,12675
40812,344,5668,8932,-269,7113,15353
40834,-7180,2272,4192,-21326,-11218,7402
40857,14576,-22020,-4184,-21075,-25460,-3231
40878,28548,-23032,-332,6031,-5810,7866
40901,2184,4728,5320,6010,9049,21007
40922,-5580,108,472,-20489,-14707,7256
40944,14244,-24152,-5240,-15435,-19731,3247
40967,17308,-20668,-3508,7141,-8279,6912
40988,6860,-2452,768,1999,-3989,12910
41011,3264,-12576,-3516,-15253,-9329,11791
41033,12916,-29848,-9524,-4745,-19175,5012
41054,21968,-16752,-4852,20168,-7081,7488
41075,1064,10752,2336,2430,5739,20578
41099,-6200,-13460,-6908,-32768,-13886,7811
41121,19804,-32768,-18608,-8235,-32768,-7124
41143,32767,-23492,-12060,30417,-12481,5104
41164,15528,6676,-1280,6991,13507,23003
41187,-5940,-13488,-5676,-30864,3234,15630
41210,7368,-32768,-13132,-9478,-24921,-8477
41232,24504,-28092,-11132,26814,-16140,-7795
41253,14300,-892,-3568,9019,-2821,2747
41275,7836,-20800,-10792,-15333,-13493,-3989
41297,25420,-32768,-15196,5694,-25084,-25169
41319,32767,-15188,-11496,15797,-9150,-12600
41340,21492,-14032,-8524,3096,8257,6341
41362,2852,-17276,-9128,4030,-5229,-7511
41385,22816,-21868,-12944,4664,-22824,-22442
41407,32767,-27048,-14640,11860,-375,-7949
41428,11056,-12780,-9928,21551,15329,5
41450,-3252,-804,-6040,6803,-7351,-18788
41473,24136,-18496,-14080,-2544,-21032,-27291
41494,32712,-24976,-14284,11481,4786,-11022
41517,6608,-11168,-11400,18497,8595,-8188
41539,10500,-8292,-12640,13467,-9221,-21660
41561,20976,-7052,-13552,15770,-689,-18779
41582,14572,-3672,-12368,8970,1691,-17837
41604,18884,-8952,-13240,7184,180,-17794
41627,17608,-9024,-12304,13954,10618,-13285
41649,9012,-3300,-11228,14826,5773,-11860
41671,14884,-3348,-9872,12319,1403,-14504
41692,15340,4288,-8600,16147,6146,-13215
41714,11436,13596,-5420,2285,5218,-16152
41736,16692,2012,-7092,-11270,2940,-17567
41758,20000,-8672,-8132,-3888,5375,-8786
41780,18684,-2352,-6216,10482,10557,-6856
41802,12424,13712,-1992,2777,9446,-12564
41825,16872,7012,-2220,-17302,5822,-16081
41847,21716,-10956,-4388,-12678,11325,-5190
41868,14888,-7336,-3928,8952,14982,1248
41890,9668,10980,-660,2694,6205,-5610
41912,21332,3688,-408,-13718,7296,-9359
41934,18484,-4532,-1256,-4037,21529,712
41955,3208,4628,512,4728,15700,3172
41978,8464,8572,-276,-1489,2678,-1787
42001,17212,5696,-2692,-1971,7622,4640
42022,14948,7796,-1836,831,14979,6118
42044,6420,13144,556,-2739,16584,10413
42066,5096,8344,476,-7914,7328,9002
42088,10064,8068,-356,-3685,2527,9086
42110,15308,13520,-1084,-14077,1523,7367
42132,24508,-796,-3724,-29211,10520,-837
42154,18560,-13868,-4932,-14884,20813,8054
42175,11056,-3868,-1612,-612,12354,1315
42198,14548,6024,2984,-11252,13816,-1949
42221,8824,-4364,1212,-23553,17969,584
42241,9820,-16548,-1132,-11730,8396,-363
42265,15184,-10732,488,5532,8881,6985
42285,8500,6188,6496,2582,16049,11108
42308,-1296,8248,8024,-17781,14372,5566
42330,2400,-11484,3016,-22391,2279,954
42352,12404,-19144,1544,-2257,-178,6264
42374,8360,-2576,6952,6775,7987,10100
42396,-2872,6204,10196,-7475,8533,5889
42419,-1504,-6488,5660,-18632,-6965,392
42441,12172,-16012,1660,-4856,-11287,1200
42462,16360,-3344,3412,4226,-4667,3426
42484,14432,7660,5480,-9128,3118,3724
42507,8364,-2488,4052,-27599,10385,9835
42528,-552,-20880,1716,-20213,4839,8644
42550,3120,-17604,2728,3141,-8556,1892
42572,10372,-668,4984,2132,-7593,4829
42594,8100,-3460,5436,-16685,825,10252
42616,4592,-20376,1084,-14603,-3804,7545
42638,8952,-18552,1472,5296,-7256,8675
42660,6736,-3148,3964,2450,-2978,13528
42682,3112,-6576,1444,-13861,-3362,11292
42704,7672,-20896,-1812,-11738,-7867,4763
42725,10252,-18272,-572,2723,-4435,8337
42748,5768,-7560,976,840,-2409,13011
42770,1836,-10180,500,-8499,-2830,13421
42792,1932,-15608,36,-6044,-7973,5715
42814,6352,-10696,344,-3479,-11233,-1447
42836,8284,-10648,-432,-12131,-6107,5622
42859,3156,-20208,-2396,-12818,-2753,10581
42880,352,-24832,-3344,-7614,-11856,4808
42903,10052,-23860,-2316,-1788,-15419,-5376
42924,16700,-16392,-2624,-1952,-6728,-866
42946,7784,-23012,-2120,-15295,7892,11877
42968,-6400,-32768,-5876,-5648,-4539,2746
42992,6536,-31416,-8112,15339,-22726,-15776
43013,24400,-16116,-6480,12917,-16104,-4898
43034,20196,-16188,-5140,4396,5368,9378
43056,-5892,-14420,600,-1701,4259,3415
43079,-4956,-23240,-6320,-7152,-25319,-18058
43101,22120,-31516,-14264,7485,-32451,-20252
43123,29540,-18472,-16324,20823,-16248,-12796
43145,24580,-9320,-13112,8943,-12915,-10265
43167,29336,-20428,-13136,-1366,-8351,-8259
43188,20932,-26208,-12444,10681,5916,-4509
43210,1964,-13592,-9156,14769,-2419,-7556
43233,14752,-14528,-11348,6503,-20433,-23285
43256,25160,-17504,-11652,10863,-5018,-16119
43275,9300,-9040,-9824,9200,-1417,-15094
43299,13068,-9980,-13036,4381,-16716,-31499
43322,30308,-10968,-14392,4362,-12479,-26734
43343,30080,-14412,-13748,4123,6647,-10210
43365,13232,-14588,-13028,15260,13483,-7448
43386,8780,2312,-10700,21558,-651,-20256
43409,22392,9500,-9112,2689,-1797,-25300
43430,23808,5756,-9584,-5262,14529,-19537
43452,15584,6264,-8056,-8065,16946,-19040
43475,12584,4044,-5920,-7807,14294,-16218
43497,14836,1476,-6180,-6346,8080,-14313
43518,22480,2108,-6192,-249,11900,-9704
43540,15276,11604,-3664,-7032,21409,-5334
43563,10184,4020,-3896,-21893,16008,-12458
43585,17932,-10144,-4820,-15657,12710,-8493
43607,15660,-9992,-2228,1609,21257,7487
43628,4636,4888,784,8306,18120,8854
43650,6120,12088,2380,-3136,8902,-1410
43672,10392,6768,3416,-12378,12506,2759
43694,2216,2580,3240,-11865,18261,4745
43715,-4436,1992,2512,-7831,6765,333
43738,7188,5296,2604,-4926,-6298,-3412
43761,15588,7716,3960,-10129,5381,7254
43782,4180,4572,1948,-16942,11611,11454
43804,3116,-5456,108,-16449,-142,5130
43825,12288,-8016,104,-2003,-1629,7378
43848,8736,4560,1508,2709,2716,13684
43870,7692,14288,1892,-11572,463,7839
43892,12768,564,-1712,-32768,5331,3856
43914,8300,-25024,-4704,-28430,9404,14022
43936,-208,-25744,-652,2704,4691,21406
43958,-6080,-1844,5280,6615,-2883,12391
43980,496,-2960,1240,-15305,-13818,-4163
44003,15532,-21524,-3492,-13226,-11634,355
44024,15624,-19084,-304,3073,-1658,11970
44046,4652,-4856,3228,2080,-12,16946
44068,1640,-7156,1344,-14262,-5138,7362
44091,7272,-23624,-2500,-13477,-11150,-2768
44113,16396,-20288,-3344,4844,-12104,-2592
44134,16756,-6224,-568,1791,-1732,10023
44155,944,-6972,-80,-13845,3153,9086
44179,1852,-21624,-5352,-17472,-16908,-11615
44200,20956,-25736,-8712,268,-21822,-14232
44223,25856,-13684,-8036,11150,-11724,3577
44244,17900,-6376,-3844,97,529,12766
44267,6392,-13044,-3300,-10204,-1397,6641
44288,8420,-23264,-4960,-5757,-13481,-2098
44311,14756,-23304,-6268,7859,-14426,1998
44332,12076,-11596,-7184,11116,-11902,174
44354,16148,-10680,-8876,18,-18014,-8256
44377,25884,-21800,-11168,-1458,-12100,-6776
44398,20392,-23340,-10956,12225,-1036,2795
44420,8760,-8608,-6720,16666,-5370,688
44442,13244,-6160,-8668,4821,-12223,-8946
44466,20852,-16400,-11872,3068,-8067,-8015
44487,17652,-15996,-12984,13052,-2827,-6513
44509,15572,-7608,-12560,12955,-7653,-11377
44530,23932,-9820,-13688,8453,-6765,-11187
44552,23476,-9600,-13536,11097,2077,-5184
44574,18912,-9228,-11996,9081,4440,-6796
44597,15732,-6564,-10760,10804,4569,-9738
44618,18548,-6676,-10156,8302,3326,-9495
44641,17840,-9712,-9296,8460,8629,-3237
44662,12472,-7544,-7800,12988,8525,-4473
44684,13468,-3256,-6500,10773,4864,-11369
44706,18996,-6516,-5824,2734,6902,-9680
44728,15256,-13136,-6420,5411,13656,-1982
44750,8276,-9420,-5852,13866,7854,-6463
44772,13192,1468,-4156,12804,87,-16320
44795,22076,5116,-3796,-970,4005,-20152
44815,20380,-5500,-5440,-8319,14889,-10947
44839,14836,-8348,-5984,2138,9702,-12120
44860,23336,-2412,-4408,7738,4725,-13802
44882,23836,3272,-1764,4252,17815,-3553
44904,13064,5000,-1788,-227,18719,-5643
44925,15932,2816,-960,-5404,8646,-12535
44948,22832,-616,228,-5382,16182,-5736
44971,11748,1052,1676,-4728,22317,-2496
44993,7908,4,1996,-4708,12636,-6465
45015,16384,-1180,2676,-766,7038,-6166
45035,16652,3776,3516,1687,15500,1578
45058,7568,10700,4124,-2138,15894,-4413
45080,9536,9632,2600,-12605,6560,-10799
45102,16632,2844,3044,-16623,10876,-5737
45124,9024,448,3868,-14026,19322,2930
45146,-32,904,4020,-10283,11923,120
45168,2964,3408,4632,-8511,-1421,-252
45190,10644,7948,4584,-11044,893,6515
45212,5884,7828,4528,-21043,10383,11657
45233,-3352,-96,1652,-26448,6020,7604
45256,-340,-6948,36,-22596,-6038,582
45278,6776,-7632,-284,-19472,-7537,-3936
45300,7228,-8832,-644,-19158,-2418,-1208
45323,472,-8292,-1860,-15128,-3426,1199
45344,696,-6588,-3272,-15049,-11780,-2697
45366,8584,-12748,-3788,-17415,-14285,-923
45388,6424,-16444,-3224,-10311,-5207,11731
45410,-6120,-12508,-4088,-6223,-11904,7823
45432,828,-15068,-7712,-4930,-24280,-94
45455,10692,-16364,-7520,-1399,-21253,4575
45477,8972,-16972,-8052,-2876,-13591,9204
45499,8036,-23608,-13236,371,-22787,8008
45521,25296,-24752,-14348,13543,-27581,10070
45543,29348,-11448,-4916,14878,-4462,21035
45564,4880,-12760,-2020,-10036,4286,17212
45586,5684,-32768,-9708,-7611,-20686,-2138
45610,27672,-32768,-11388,17693,-24015,-1189
45630,21092,-16488,-7168,18369,-11170,4553
45653,20068,-14456,-10896,5422,-24235,-16777
45674,32767,-25348,-18276,6444,-27046,-15876
45696,32767,-23092,-16028,21648,3726,2252
45718,17736,-11252,-9016,18286,15736,10175
45740,5668,-16216,-9076,9647,-6133,-13897
45763,23960,-22264,-18584,18235,-19618,-25378
45786,32767,-12472,-19828,22823,-11038,-21852
45807,32767,-3676,-18096,15449,2993,-18684
45829,28628,-13468,-17676,3310,12834,-10360
45851,13880,-23176,-17708,13178,16470,-9115
45873,10872,-14276,-16156,26589,6105,-29780
45894,19044,4524,-12112,26970,6900,-28027
45915,19020,19132,-6212,7704,18879,-26207
45939,10876,11408,-5040,-13911,27147,-24961
45960,4776,740,-3940,-12303,19900,-25017
45982,13108,-88,-1400,-3368,13112,-19059
46004,13756,5216,1656,-3697,21058,-9329
46025,4600,7768,3076,-10618,22090,-6660
46048,4612,2280,2956,-14010,10526,-16073
46070,15548,-1804,4596,-7186,8989,-9768
46092,10116,5492,7404,-2944,21181,1902
46114,-3772,10872,7108,-8871,14076,-2284
46135,4416,7024,3984,-14880,-5538,-12461
46158,20456,1492,3816,-15986,-853,-6873
46181,11448,4492,3980,-13443,15903,3778
46203,-1236,8948,2564,-17920,4707,-5033
46223,9748,2548,616,-22368,-6947,-11543
46246,15824,-584,1352,-18288,3280,-3590
46268,6468,1432,496,-15777,4401,3275
46290,7580,116,-676,-11961,-4050,6746
46312,12812,1092,-740,-9397,-3527,10552
46334,13136,908,-828,-12316,2958,10132
46355,7368,2496,-728,-13552,6306,6364
46378,6084,1680,-544,-18524,1791,2742
46400,9196,-5556,-156,-19361,2376,5699
46423,5700,-8200,1652,-12702,4758,8754
46445,-748,-2252,2880,-11518,2247,4292
46467,-1352,-7376,3204,-18574,-5745,4976
46488,4080,-15772,520,-8612,-8283,2057
46511,3792,-8500,780,3558,-11223,9170
46532,6292,3032,1352,-4184,-11097,10796
46554,7084,-5068,-456,-24210,-8714,6198
46577,6692,-22892,-3432,-23993,-8154,-154
46598,4656,-28736,-3388,-6094,-9823,2556
46621,-1828,-16076,-1560,6605,-15408,25
46642,5512,-5244,-5320,-4878,-31226,-13217
46665,27056,-16548,-11636,-13121,-26798,-14048
46685,26192,-25272,-9492,-1903,-5547,6384
46708,2180,-16004,-4220,6733,-6263,7636
46730,7140,-10552,-7984,3936,-31498,-15953
46753,32036,-15976,-13504,-837,-28617,-6799
46774,28812,-27132,-13416,1748,-4810,13652
46796,5452,-28076,-14268,9430,-10558,2148
46819,18560,-22012,-20424,19529,-32768,-21167
46841,32767,-16832,-21416,19680,-24693,-6039
46863,31892,-20964,-18392,16709,7855,6923
46884,6976,-17204,-19328,27094,-3187,-5557
46907,21268,-8416,-21376,28623,-22975,-22713
46929,32767,-5720,-20608,22260,-4851,-18972
46950,22400,-2936,-21464,17514,5857,-18019
46973,23220,-9232,-23356,15079,-287,-20745
46995,28164,-11056,-24288,28527,7313,-15627
47015,18324,6636,-19424,32767,13427,-7847
47038,12996,17728,-13364,17536,7967,-18099
47060,22364,6488,-12520,779,8283,-23215
47082,20172,-976,-12048,3938,19576,-15480
47104,10944,5824,-8028,7086,15833,-16178
47125,15488,10612,-6260,2800,11175,-18592
47148,18284,9168,-5564,-6683,14567,-12755
47170,17372,-652,-6376,-9806,16668,-6653
47192,14924,-1220,-4752,-408,17801,-5013
47214,9836,10064,-1628,-2075,15313,-4924
47236,11396,7808,-1680,-14284,9959,-5727
47258,15096,-920,-4640,-10257,13970,1096
47280,9364,6016,-1780,-3983,13988,4053
47302,9100,8956,-1152,-12586,10062,2067
47324,12088,2444,-4052,-17391,9618,1149
47347,16892,-3528,-3312,-14623,12765,575
47368,9408,-232,88,-7107,22938,7808
47390,-3444,11564,2856,-10576,14125,2756
47412,4424,7048,-276,-22148,-590,-6214
47434,15200,-560,-2188,-22207,3731,-5596
47455,9436,-444,-468,-20901,14443,2457
47478,-2664,-704,572,-23180,13310,313
47500,-4320,-7212,52,-21250,1422,-6223
47521,1048,-8228,1272,-15270,-4967,-4923
47544,3328,-5320,2384,-11129,-5439,2490
47565,2036,-1980,1500,-12597,-4234,6563
47588,-676,-3360,20,-20368,-7744,-492
47611,3848,-16324,-4028,-25100,-13928,-9526
47633,9752,-24324,-4760,-13496,-16930,-7589
47654,8780,-19820,-3888,2259,-14501,344
47675,6492,-10064,-3100,5341,-21817,-2180
47698,17980,-8168,-4384,3221,-24115,-2867
47721,20596,-5696,-3144,-1955,-11097,9639
47742,5452,-14392,-2596,-10167,-3856,12136
47764,144,-28908,-9148,-3125,-24945,-9810
47787,25792,-28380,-15156,21026,-32768,-15944
47808,32767,-8056,-11452,28733,-19559,2202
47830,27028,-1292,-3804,5107,8842,18168
47852,-4964,-20028,-7284,-7692,-2330,7941
47875,10864,-32768,-19976,14247,-32768,-32361
47897,32767,-25364,-28328,32767,-32768,-21816
47918,32767,4788,-21300,32767,-4622,-4003
47940,23376,11072,-14796,5914,10833,-3565
47963,21128,-23260,-22524,-5845,-4375,-12026
47985,32767,-31672,-29920,32767,-2551,-7819
48006,25176,10316,-26852,32767,817,-5783
48028,31264,25592,-20704,9494,-1597,-21384
48051,32767,-6924,-24820,-14381,21912,-4293
48073,17776,-17540,-22792,16535,32767,14020
48094,3068,5180,-13824,29295,17857,-2896
48115,18932,15908,-8564,10429,10535,-14337
48139,20132,2624,-7604,-8158,27945,-524
48160,5108,-8348,-6884,3924,26006,2188
48183,4356,1740,-2644,10475,8986,-11281
48204,16240,6116,-908,-254,8944,-12276
48226,14940,-12,-724,-3667,17057,-249
48248,10016,1332,-1528,2842,14358,-2345
48270,12124,7696,176,1442,10150,-3013
48293,12724,8840,740,-6925,16349,-2443
48315,6888,4504,1140,-11072,15131,-5729
48336,7940,4020,400,-8611,6808,-7931
48358,14504,4840,1100,-10759,8711,-78
48380,9140,2948,2668,-13344,18007,7219
48402,-2348,2752,2856,-16130,11655,-748
48423,4632,-1428,788,-17551,-1983,-11627
48446,13932,-2032,-36,-13181,868,-5036
48468,6920,3352,2020,-14340,9630,8024
48490,-2196,2396,2280,-21053,4593,4874
48512,1704,-6056,-564,-22237,-5876,-3918
48534,9104,-11344,-1040,-14185,-5791,-1904
48556,6544,-5000,1432,-9184,566,3193
48578,-1324,-1724,3780,-14488,740,1516
48601,-5680,-4524,56,-19413,-7710,-1967
48622,-912,-12240,-3212,-20600,-16144,-2421
48645,6836,-18884,-5836,-16110,-18435,-7382
48667,10340,-19556,-6768,-6467,-16445,-4019
48688,11752,-13172,-5296,2320,-11260,8113
48710,6140,-10824,-1280,-6570,-6830,11865
48733,3428,-22252,-5480,-6530,-13677,3651
48753,12768,-21924,-8300,6292,-21861,-4014
48777,15136,-8976,-4776,5334,-10587,-2254
48799,8444,-16232,-9888,-13704,-20182,-17705
48821,29608,-32768,-20876,2250,-32768,-31680
48843,32767,-22368,-25156,27051,-22541,-16726
48864,32767,-1732,-18100,29375,6572,10020
48885,14364,-3672,-10400,2212,17826,14869
48909,8520,-28476,-18716,6387,-14779,-16447
48931,32767,-18308,-24540,32767,-22419,-23877
48952,32767,2080,-19736,31248,3775,-1213
48973,15732,-9800,-19812,15838,11934,2183
48997,12016,-18920,-26616,32767,-15343,-19434
49019,32767,13348,-32768,32767,-28765,-12538
49040,32767,30704,-20140,10740,28785,8147
49061,7336,2748,-18796,-27032,32767,32767
49085,-21520,-29136,-13488,-701,15415,10270
49107,13604,-11840,-15516,32767,-19641,-17200
49128,32767,24232,-8836,32348,5647,1843
49150,23048,26784,-5444,-11352,32767,3815
49172,4912,-2716,-6452,-32147,27603,-11453
49194,13200,-22800,-6504,-5958,9266,-17517
49215,20200,-7300,-3532,12444,10989,-6787
49238,19152,5276,-252,2939,18394,-6869
49260,16748,1284,-372,-12353,24155,-13738
49282,12912,-11488,-1608,-7851,25717,-11103
49304,6756,-4164,960,6368,23421,-6854
49326,5732,9092,3780,2822,16367,-5993
49348,7520,11200,4568,-8819,19128,-2143
49370,-708,5500,4504,-15257,20606,3820
49392,-4584,2000,4664,-11697,10201,-203
49414,12,8968,4512,-10905,1873,-4840
49435,3324,10816,3468,-20887,5743,374
49457,-3848,4108,1204,-26705,7385,6809
49480,-6464,-1388,-1356,-24212,-3399,1268
49502,1932,-4980,-2280,-21958,-9248,1508
49524,3040,-7544,-1812,-19270,-1780,10621
49545,-7608,-5660,-1736,-20486,-2561,4735
49569,-3520,-11728,-5508,-23939,-14239,-15641
49591,5464,-15112,-7928,-21149,-16639,-14346
49612,7752,-17552,-7900,-17856,-13213,-537
49634,1948,-18044,-3648,-11532,-6413,11402
49655,-7628,-19316,-5696,-12569,-19220,746
49679,6600,-23324,-12144,-3429,-32768,-14211
49700,20240,-15380,-10192,1594,-25488,-3326
49723,16352,-18628,-10632,-9075,-17346,8077
49745,13552,-32244,-16416,-4968,-22570,-1871
49767,23952,-32708,-19316,15358,-22376,-8690
49789,18120,-17800,-15292,17968,-15438,-4206
49811,22324,-12512,-19664,13060,-27492,-19472
49833,32767,-14772,-23388,5331,-22155,-15924
49854,32767,-24208,-22596,9073,8266,2910
49876,13568,-20616,-18076,19646,16269,7205
49898,8324,-23068,-18092,20832,-6847,-9908
49921,22080,-16184,-22988,32767,-12741,-21644
49943,28732,12668,-21028,32767,-9776,-20865
49964,32767,13264,-18548,-2283,2639,-16226
49987,32767,-21700,-23752,-7133,18984,2471
50009,20164,-27360,-23500,32767,23577,15415
50030,10884,7712,-15392,32767,14628,5479
50053,15452,21488,-8076,10079,9781,-12127
50075,22980,-2588,-10492,-15469,20659,-13222
50095,12176,-20004,-10068,2880,29425,703
50118,-944,-3960,-4224,25344,17368,-7407
50141,4008,15100,1516,11739,1204,-22183
50163,17440,12764,420,-9494,1514,-30005
50183,22492,-1468,-4560,-16686,7382,-23124
50206,26212,-7364,-6272,-3130,11003,-9392
50228,22028,60,-2176,2517,22876,2268
50250,7088,7144,2200,-2487,24493,3130
50272,4284,5084,3424,-8688,16689,-7258
50294,7288,1008,2624,-9642,13768,-7814
50316,8540,-1292,1564,-6341,14327,-903
50339,2960,2372,4528,-1768,14429,3805
50360,-3328,7532,5288,-3624,8788,3794
50382,-1096,7852,3164,-10290,-1492,-4425
50404,7908,4508,1084,-14449,-2378,-8238
50426,8872,2368,-20,-16535,3367,1854
50449,2788,292,1100,-15823,6311,14029
50471,-3216,-380,1304,-16122,1017,15206
50492,120,-5692,-52,-17479,-4930,13089
50514,3504,-8976,-1424,-16075,-5359,9237
50535,2304,-8256,1016,-15451,-1658,6931
50558,-3132,-9940,-44,-20735,-5356,7669
50580,4,-19076,-2980,-20560,-14591,3322
50602,4020,-20688,-3316,-8729,-14543,3508
50625,-1256,-9548,-3916,-10034,-16565,-2618
50647,5232,-21316,-6596,-17204,-23680,-6113
50668,8368,-28388,-10040,112,-25768,2875
50691,14596,-16068,-10036,15753,-30051,5267
50712,22272,-2656,-4800,6957,-18527,10452
50734,9656,-11288,-5360,-17214,-6140,12922
50757,2172,-32768,-13560,-14646,-21207,-1043
50779,19980,-32768,-18412,6120,-31668,-6437
50800,28644,-31316,-17644,14334,-18451,-3026
50823,22828,-25432,-17632,15588,-14524,-2017
50845,23336,-20676,-17664,16248,-11930,-7438
50867,19260,-17180,-18108,12669,-10674,-9289
50889,22184,-22260,-24044,10604,-14220,-11781
50911,32767,-29912,-29976,18869,-14495,-9562
50932,32767,-18756,-28952,32767,4958,434
50954,23028,8084,-18192,27174,19407,11013
50976,13484,1752,-13728,-5901,19686,3333
50999,9908,-25508,-16104,-5207,18995,-2459
51021,12692,-25280,-17612,23638,10054,-18551
51042,23176,48,-13932,28677,13379,-20403
51064,19680,9376,-7968,2315,31161,-11367
51085,5892,-7524,-6880,-10039,32767,-7141
51108,-1584,-13964,-2984,9393,16134,-10350
51130,13060,3012,-1100,20580,4224,-16370
51152,19276,13064,2372,1446,16324,-11076
51174,8700,1664,1880,-14580,22695,-10594
51197,7564,-8408,-432,-2493,8805,-19912
51218,17628,3824,164,8735,6824,-15189
51240,16608,14336,3052,-6511,17316,-4498
51262,6888,1748,1836,-19604,22313,1617
51284,-2028,-3896,1488,-6281,11181,-10
51307,5484,4832,2424,-724,-2093,-5834
51329,12060,8316,3832,-10037,6738,2191
51350,2212,664,3180,-18534,12331,7636
51372,648,-11788,-420,-10650,1143,-653
51394,7140,-8708,-824,879,-6467,-1351
51416,10168,2256,1628,726,802,-1657
51438,4712,10412,1572,-10941,1966,-5144
51461,10180,-144,-1488,-25875,-1936,-1875
51482,13572,-17900,-3476,-19375,7454,9394
51504,-320,-12604,580,-2784,7982,8626
51525,-4108,1636,5148,-2502,-2052,-994
51548,-1296,2608,3152,-20634,-7230,1369
51570,5872,-18700,-2452,-21204,-7263,5728
51593,6992,-21912,-3100,-1033,-6867,7124
51614,108,-8176,2556,-1244,-4196,10754
51637,-5860,-16616,-1292,-13256,-12659,7570
51658,4744,-31188,-6052,200,-26603,-3555
51681,20392,-17380,-8816,17899,-25385,-370
51702,22340,-1428,-1808,809,-5354,11999
51724,5052,-15684,-3680,-19435,3661,21425
51745,-2456,-31008,-6816,-4949,-11668,5626
51768,2104,-17528,-5432,5739,-20945,-6693
51790,14288,-17672,-11136,-4976,-28349,-13469
51811,31924,-28388,-14348,230,-21504,-1777
51833,23492,-21100,-9492,10185,2247,15138
51855,-4140,-13864,-4816,-50,-613,8122
51878,7948,-28372,-14184,-2789,-32768,-26199
51901,32767,-32768,-19136,13779,-26441,-14934
51923,32767,-18756,-13848,21188,16896,15777
51944,-1012,-10216,-11392,8761,2792,-1914
51968,25772,-22836,-20500,2813,-30198,-32768
51989,32767,-26700,-24288,17672,-4587,-14869
52010,28472,-5076,-17760,24277,29203,10712
52032,5452,148,-12848,6355,14136,-2715
52054,21408,-11996,-14468,3582,943,-15713
52077,24744,-14528,-13084,9106,19193,-1936
52098,9224,-8156,-10620,14393,19953,-4333
52120,10820,-1480,-7844,15911,12503,-14153
52142,13740,4312,-4648,7067,14479,-15307
52164,11888,-3520,-4968,-4761,13878,-17325
52186,16876,-11848,-7008,2403,10675,-20753
52209,16744,688,-3700,9270,11754,-16257
52230,14720,8808,-64,-5699,15112,-13953
52253,14236,-2612,-2380,-13857,13417,-13543
52275,16728,-8716,-3020,-1413,13928,-7424
52296,12180,6660,1488,8282,18655,-2088
52318,3372,16568,4688,-5537,16726,-5217
52340,7096,5956,1876,-19465,8125,-10252
52362,12872,-5668,36,-12682,9936,-3065
52384,5372,-196,2288,-839,12708,7032
52407,1552,9996,3524,-2535,4407,637
52428,6668,8948,2328,-12436,2555,-6012
52450,7252,1700,-1384,-21835,2940,-7171
52472,14536,-8608,-2636,-14682,2876,-886
52494,8536,-3132,944,-6785,14056,15072
52517,-5916,3480,3612,-11846,11701,9709
52539,-7120,-1316,2156,-21329,-1362,-7637
52560,2584,-10068,-4,-20421,-8712,-13506
52582,9996,-12036,288,-12857,-6859,-5461
52603,2644,-6944,3632,-7984,3199,10682
52626,-10088,-5792,4416,-14681,-7153,4049
52648,2880,-17168,-2908,-12546,-24637,-9926
52671,19800,-14624,-3584,-1432,-19920,-5615
52693,16584,-4496,-828,-2051,-623,13199
52714,-3152,-4220,672,-17936,-1857,13159
52735,860,-24804,-6728,-19979,-21356,-5926
52759,17396,-29960,-11088,207,-26953,-10959
52780,21288,-12076,-6940,13726,-13885,3388
52803,7100,-1792,-4692,-6294,-9212,3043
52825,5836,-22152,-13232,-19619,-24140,-12367
52847,25948,-32768,-21636,4677,-32710,-25006
52869,31388,-16040,-17872,26263,-15177,-11441
52890,16292,-1792,-13256,11330,-9468,-3113
52913,18304,-15712,-18272,2072,-21637,-12233
52935,32132,-22416,-22504,17940,-16598,-11635
52955,24840,-9244,-22024,27000,-6677,-3298
52979,26080,-3756,-21932,18769,-12090,-6840
53000,32767,-16020,-25312,17044,-1559,3807
53022,25540,-12652,-25712,29655,6591,3562
53043,24672,1008,-22976,28983,3701,-7612
53067,27272,5636,-19792,16589,12476,-5897
53089,18036,-1088,-17612,9581,21608,1134
53110,13592,-8028,-16240,10404,13400,-2935
53132,17060,-5972,-14720,18801,14131,-7265
53155,15324,10428,-10892,18233,14321,-12223
53176,14060,20040,-6828,-3256,16518,-19364
53198,16060,2908,-8248,-22274,15423,-18315
53221,19864,-13176,-10492,-10669,13040,-8464
53243,22012,-10504,-8552,8384,18042,220
53264,12476,5744,-2948,8124,23157,1224
53285,10188,5688,-436,-9991,19107,-8505
53308,13792,-9080,-2000,-10024,19552,-6203
53330,7868,-3276,-1348,7034,17373,-2507
53353,11940,15120,1368,1893,11125,-9099
53374,14764,13380,1716,-21054,21416,-6800
53396,3596,-3020,-84,-25934,24781,-4099
53418,-632,-5604,1248,-8550,11204,-7030
53440,5748,12400,4028,-3293,3711,-6649
53462,5352,16764,5620,-26048,13039,-927
53484,-8700,-524,1720,-32768,12170,-5636
53507,-8076,-6976,-1148,-21146,-10684,-22669
53528,11976,-2520,-1384,-15479,-14818,-26314
53551,10016,1812,0,-18557,2618,-6232
53572,-5244,-1876,24,-21277,670,1273
53594,-8008,-4392,-1420,-16596,-13007,-4966
53615,844,-6180,-5476,-19589,-22798,-14096
53639,11804,-15348,-10300,-21166,-23117,-9042
53660,13820,-24356,-11644,-9892,-16416,-4301
53683,4540,-16288,-10744,1166,-19644,-10026
53704,20080,-14500,-15248,5324,-32768,-19754
53725,32767,-14892,-14248,11209,-18061,1528
53748,24384,-14256,-10048,15636,500,27175
53770,3708,-7084,-7108,11263,-8316,11180
53793,17256,-18124,-14944,4491,-29625,-17140
53815,32767,-20680,-22056,22344,-25832,-12647
53835,32767,-7912,-17232,28814,-1111,5993
53858,14936,-4192,-14556,20885,4626,7785
53881,19572,-3404,-18512,20461,-23217,-22610
53903,32767,-4696,-24040,18470,-12035,-20578
53924,32767,432,-25744,21184,9932,-5985
53945,32164,-1124,-27832,20897,446,-12620
53968,32767,-1832,-28800,30606,12715,-307
53990,29924,12416,-22844,27022,30684,12901
54012,14292,9504,-15984,12180,28931,9678
54034,15964,-3440,-14080,12977,19829,4833
54056,17576,508,-11308,23156,21765,8005
54079,12848,8000,-8088,14280,20607,6352
54100,14412,-364,-6728,2667,17721,-38
54122,14188,-4280,-3872,7469,19143,-659
54144,10468,-144,-1000,11005,17381,323
54166,8092,5780,1560,7583,12141,-3399
54188,11836,6444,1116,-2086,5920,-11255
54210,19244,-216,-688,-9535,7827,-12648
54232,16164,-3396,1068,-7242,17159,-9098
54254,6296,868,2460,-3783,12937,-11638
54275,11488,2660,1232,-5849,1338,-17323
54298,21104,2620,1148,-6220,6946,-9846
54320,11108,6484,3324,-10341,17537,-2935
54342,1912,4360,2696,-13982,9788,-10721
54364,6188,2484,1344,-10323,413,-12880
54387,8656,7668,2828,-10231,2693,-5369
54408,3344,5976,3352,-18443,6201,-1990
54430,-780,-4628,92,-18406,-2153,-8287
54452,4592,-7944,-3452,-3535,-10838,-7064
54474,14308,-744,-2108,5040,-12899,831
54496,17084,15500,420,2915,-445,9840
54518,4564,22816,1916,-26405,12408,7581
54540,-6308,-1564,-1176,-32768,5789,4087
54562,360,-24880,-4672,-24971,-6344,3433
54584,1488,-15572,-340,-2344,-6835,9353
54606,-3332,-2420,928,-10839,-12713,7163
54628,6228,-13864,-4448,-18618,-21124,5004
54650,13452,-21396,-5532,-9338,-14609,13177
54672,7728,-19524,-5044,-4516,-13220,8129
54694,9272,-19740,-5984,-2959,-20158,5524
54715,13076,-18068,-4280,2455,-17663,9265
54739,5000,-14832,-4804,3087,-17692,11622
54760,12292,-18552,-10588,4592,-28548,-4618
54783,27640,-16856,-11996,8148,-24946,-9942
54804,26700,-10368,-7408,6131,-3501,2125
54825,9692,-14508,-8340,-2369,-1784,4643
54848,10840,-27172,-13348,788,-19567,-8811
54871,28868,-27268,-19720,20092,-27877,-17011
54892,32767,-7336,-14932,23755,-6409,-4493
54914,14516,-5788,-13156,2967,7867,3246
54937,10004,-22480,-20384,5776,-18549,-16862
54959,32767,-18604,-29036,26217,-28850,-25558
54980,32767,1412,-25816,26237,-710,-13896
55002,29424,-1216,-24308,6059,22626,1088
55024,17368,-16112,-25284,13554,12753,-573
55045,25012,-2636,-23380,32767,3681,-7495
55068,29708,12460,-18472,15051,16047,-7265
55090,25824,996,-16808,-7146,30920,-3432
55112,12096,-13076,-14908,-1268,32722,-832
55134,6324,-8516,-11280,16412,16673,-8307
55156,15100,7972,-6380,16365,8018,-14116
55179,21504,11924,-4028,-5377,16862,-15556
55201,20636,-5148,-7976,-15628,24210,-9915
55223,15024,-10512,-6300,768,28178,2238
55244,5888,2548,-956,7863,24070,-3812
55265,5836,7968,2616,-5342,19266,-12642
55288,6388,-64,1872,-11401,19745,-13005
55310,3476,2800,1920,1451,16059,-5967
55332,2388,15348,3568,-1153,10458,-1930
55354,5956,13376,4740,-15969,9893,-5463
55375,1808,4640,3668,-21925,14472,-3391
55398,-3468,576,2044,-19717,4724,-11846
55420,4456,-1412,1560,-14480,-3315,-13194
55442,5912,4672,2104,-11524,469,-4780
55464,1992,10988,2072,-21189,-534,-6881
55485,4444,1552,-1332,-32405,-4299,-13078
55508,10440,-14088,-4868,-26947,-7445,-696
55530,12904,-16864,-1612,-4691,-692,21294
55552,-2372,-44,4000,720,4389,23215
55574,-10540,4396,1936,-21681,-10974,-4435
55597,5544,-13992,-5688,-25642,-26460,-12861
55619,19888,-24132,-6304,-9506,-17891,3806
55640,10984,-15956,-2516,781,-6981,20226
55662,6120,-11820,-2704,-1343,-14497,18011
55684,12332,-15288,-2332,869,-11729,19705
55707,2628,-10796,-1244,-1767,-7159,15637
55728,1004,-15356,-4340,-9227,-19745,2825
55750,14168,-25308,-8300,-817,-25718,-2964
55772,16220,-16828,-6068,10178,-16714,8747
55795,8840,-11004,-6424,-1338,-18109,-245
55817,16608,-21612,-11548,-5586,-24909,-11283
55838,25088,-28680,-13788,1975,-18169,-8271
55861,16260,-25212,-15976,11404,-14605,-6203
55883,25972,-24732,-20984,14148,-28179,-15742
55904,32767,-26652,-23852,18661,-18637,-9395
55927,30316,-17932,-20624,26147,11709,5324
55949,7612,-8600,-22044,19576,-7957,-10909
55971,32767,-19400,-29392,14547,-25015,-20905
55992,32767,-19452,-32652,32481,5203,-6361
56014,27492,4492,-26152,32767,28265,5984
56036,12872,12392,-17672,6215,17141,-13407
56059,24888,-11036,-19520,-5921,12987,-19309
56080,24992,-16512,-20308,20721,24684,-1237
56102,13704,6464,-13448,25250,25060,-2403
56124,9852,12576,-6380,-556,21954,-16771
56146,15112,-6508,-6104,-7807,22915,-16037
56168,8156,-5944,-3600,10159,25760,-5443
56190,4556,8428,728,10791,14531,-10696
56212,12540,8980,2232,-2956,13445,-14543
56234,11504,6320,1912,-4648,20525,-7579
56256,5152,8264,1992,-4640,18670,-4348
56278,4688,8204,1164,-8926,13651,-2093
56300,5480,4632,3800,-11922,13597,-877
56323,1500,3992,3464,-11365,11909,-1466
56344,2288,6192,2232,-11811,3894,-3696
56365,5680,7288,1708,-17191,4505,-1850
56388,3124,2428,800,-23319,7922,-1083
56410,-632,-3728,-196,-22976,5267,-5904
56432,-48,-6756,-1508,-18339,-2590,-3593
56455,6068,-8212,-1784,-15833,-4882,4182
56475,3676,-7460,-784,-15421,-47,13081
56498,-2176,-6212,1604,-15801,268,5275
56520,-5120,-7728,-540,-18018,-7922,5713
56542,2148,-17032,-2472,-18418,-13984,10373
56564,3820,-20972,-1220,-6995,-10292,15433
56585,-6256,-6312,1356,-6261,-11005,4339
56609,-3364,-10348,-4016,-24423,-23719,-17056
56631,10972,-27092,-10420,-12823,-28960,-19416
56653,17568,-15468,-10520,10445,-28668,-7563
56674,25064,-1744,-4428,-2266,-15227,1876
56695,6692,-13604,-5800,-29357,969,5086
56719,-2092,-32768,-15692,-20249,-24040,-20733
56741,26604,-32768,-23300,18724,-32768,-27119
56762,30024,-12132,-20152,24107,-14977,-727
56785,19812,-9980,-22788,8017,-20124,-12116
56807,32767,-20812,-27432,9751,-23157,-18499
56828,32767,-18064,-25060,21458,6312,-2902
56850,10464,-8232,-24164,22631,2848,-3527
56873,26136,-9028,-28492,22888,-21799,-26818
56894,32767,-2176,-30924,26301,-1981,-18092
56917,32767,4680,-26532,11993,23601,-1233
56939,23124,-11060,-27612,9116,23741,8220
56961,20128,-5980,-22104,24184,20359,813
56982,21816,2464,-19396,15537,21176,-3445
57003,21644,-3580,-17560,6320,29211,-1974
57026,10448,-6500,-13244,11683,32767,-2819
57048,5376,-1732,-9636,16591,22664,-14652
57070,13900,7736,-6720,12149,16978,-20085
57092,17072,8332,-3092,-3236,27167,-16155
57114,4944,328,-1120,-3531,32767,-2813
57136,-5052,8284,2720,10523,15914,-9292
57159,6664,21792,3300,25,2494,-13961
57180,19372,10996,528,-21820,13748,-6924
57202,9608,-2088,588,-14691,26622,2181
57224,-3948,5664,4228,-2665,15066,-1937
57245,-708,11572,5664,-5832,5164,3527
57268,448,10760,3992,-13929,2804,7512
57290,4476,4524,336,-18959,-1058,4680
57312,10376,-1088,-1140,-20359,2198,1256
57334,4324,-3096,164,-20004,8361,11844
57357,-1960,-5476,168,-20168,1248,7331
57378,2696,-9128,-532,-17672,-6352,-1627
57400,7884,-10480,-2532,-17320,-8391,-2557
57422,12216,-15972,-1524,-8971,-1589,7658
57444,-348,-8820,1312,-2187,1272,16014
57467,-5520,-3908,1716,-9234,-9093,4089
57489,4148,-9004,-1444,-15401,-16311,-10525
57510,11504,-14540,-2080,-15301,-10830,-1
57532,6868,-22128,-2344,-16832,-5995,9157
57554,1536,-29076,-3728,-3755,-12072,10607
57577,5052,-14456,-3404,15049,-21717,3055
57598,13008,4584,-348,-1627,-19839,-3877
57620,15832,-8352,-4564,-29001,-8763,-5722
57643,9316,-31664,-9620,-23567,-8162,-4588
57664,4836,-30752,-7508,7926,-14829,-2740
57685,780,-8652,-9480,12785,-27515,-7256
57709,23600,-10960,-17948,-5123,-32768,-27280
57731,32767,-25016,-22472,-818,-20153,-19085
57752,32204,-17656,-16108,16760,6292,9565
57774,9816,-17624,-12844,10167,4429,19431
57796,6796,-32112,-15540,10989,-10808,-7874
57819,19608,-19640,-22048,32767,-24709,-32768
57840,32767,6208,-16884,22509,-12014,-23602
57862,25060,-8216,-17148,-8111,22830,8337
57884,2820,-28904,-24676,12838,-3463,-18565
57907,32767,-7552,-31816,32767,-24149,-32768
57928,32767,17428,-27404,26313,6743,-18333
57950,31592,9564,-26124,200,31571,1977
57972,17408,-4248,-22656,5624,28331,-5650
57994,15884,6844,-18184,16597,16582,-20182
58015,28088,17504,-14852,-265,20547,-23915
58038,23744,8724,-13624,-17683,32767,-7264
58060,-264,-960,-10796,-10509,32767,-2506
58082,976,4220,-6636,-529,17165,-11830
58104,17872,8496,-5112,-6622,18104,-7669
58127,10036,4864,-4252,-14140,32767,15345
58148,-11504,2036,124,-8540,32767,11923
58171,-18148,9488,4012,-6149,15234,-2386
58192,-4360,9232,3660,-16427,1476,-9223
58214,1896,3408,1724,-21730,7615,1470
58235,-5712,800,1872,-19957,7809,6098
58258,-7360,3524,900,-18278,-3087,-343
58281,296,6676,-620,-24666,-8695,-6841
58302,7732,-3244,-2896,-32768,-4936,-6703
58324,3084,-14236,-2996,-30463,2931,6703
58345,-9636,-15644,-1796,-21735,-2763,12522
58369,-14312,-12228,-2488,-22541,-16911,-5151
58391,1544,-23648,-7768,-25230,-32254,-20566
58412,16264,-32768,-12280,-12614,-24828,5930
58434,4792,-32768,-8280,8392,-15418,14445
58455,-3076,-17924,-8204,14314,-30998,-5332
58479,19176,-13188,-11392,11311,-32768,-16058
58501,29500,-14060,-11236,1775,-16494,5508
58522,16200,-32164,-14956,-7029,-9431,8006
58545,16360,-32768,-19628,20425,-21101,-6468
58567,18596,-18420,-18724,32767,-17976,-6968
58588,21936,104,-21068,25837,-24768,-17793
58611,32767,-11848,-22828,6468,-15688,-16398
58632,29960,-20368,-26180,14905,8995,-8802
58655,10744,-12428,-24232,26017,-3394,-18469
58675,23488,1828,-28076,29980,-20259,-32768
58700,32767,10072,-29744,17986,-11975,-30770
58720,32767,5536,-26040,4516,20477,-13615
58742,17012,1452,-21264,10093,28642,-6040
58764,13980,5796,-14784,13086,11309,-15120
58785,25108,4620,-12784,7247,16631,-14198
58808,19304,2420,-11172,4119,26174,-9145
58830,11488,7664,-7448,3061,23145,-17149
58852,16064,6880,-6816,-8263,16041,-25177
58873,22600,2004,-6952,-7883,22003,-18745
58895,15844,8104,-4992,-7383,26851,-11622
58918,11484,6772,-2716,-12915,26837,-7806
58940,6088,4160,-876,-9851,25466,-3472
58962,3536,7028,540,-5539,18569,-1040
58984,5280,9208,2336,-7911,15918,8475
59006,1992,8196,3540,-11839,20408,11245
59028,-5128,3204,3576,-15441,14135,6434
59050,260,-460,2024,-11872,1470,-3258
59072,9280,3136,2276,-8716,4068,-454
59094,2796,10264,4092,-16738,11847,4102
59115,-2412,3544,2572,-28048,6413,-4591
59139,2052,-5608,1408,-23016,-1409,-11416
59160,5284,-2644,2984,-16819,-2241,-6970
59182,4056,-4248,3532,-18056,-430,1121
59204,-1824,-3208,3308,-12415,-5208,2219
59225,1012,5192,2592,-18488,-15431,-9304
59248,12932,-6760,-504,-30361,-13979,-9673
59270,10048,-21704,-3256,-20478,-5715,-861
59292,4260,-20848,-4680,-1870,-17797,17
59314,16392,-16440,-4016,6393,-23634,-1233
59336,20328,-14560,-2416,7767,-8763,-838
59358,9600,-10188,-2276,12666,-11070,-1202
59380,19932,-4052,-3272,6411,-23360,-3042
59402,31456,-11592,-2456,-3589,-7616,12813
59423,14468,-20040,836,7,11289,18792
59446,-7380,-18248,1380,7225,-7839,1238
59468,11668,-16736,-5208,17011,-32768,-18271
59490,28796,-6532,-8396,19433,-25438,-2614
59513,31032,-8100,-8400,8126,-7595,9844
59534,15488,-14616,-6216,6389,806,3893
59557,17344,-20628,-10616,17242,-15621,-12232
59579,27856,-8492,-15288,32767,-11474,-5758
59600,26604,13172,-16760,23857,-13501,-15202
59622,32767,680,-24996,1788,-15175,-19032
59644,32767,-10748,-25148,21576,14292,6835
59666,23940,10616,-20556,32767,20483,9424
59687,22352,25644,-16352,12452,-4366,-19647
59710,32767,11844,-18864,-11473,3007,-23806
59733,32767,-6576,-19080,-8936,32767,1379
59754,11272,-8020,-12364,8329,32767,6793
59776,6880,1156,-5592,12700,14670,-9158
59799,16428,5424,-3460,1980,12194,-19540
59820,17540,1800,-3932,-9600,18377,-21892
59842,12776,-2996,-3452,-10135,20123,-21127
59864,10748,-264,-1548,-2689,16942,-21492
59886,11788,7912,-508,-740,10234,-14502
59908,15252,12244,1316,-6488,14164,-3567
59930,9780,6764,3068,-11205,20181,6791
59951,-444,3616,4552,-732,17733,7301
59974,-4136,16576,5060,3142,2337,509
59995,10860,18772,4236,-12294,-5604,-5206
60018,16988,6700,4400,-22270,13017,6863
60040,-1028,-600,4884,-17713,17044,7609
60062,-6576,1808,4792,-9000,-1149,-3104
60084,5828,6964,3224,-6840,-8108,-5746
60106,9844,9064,3692,-12765,-1442,5077
60128,2328,10900,2912,-18548,3181,10453
60150,-1444,5628,1348,-27630,-3574,6057
60172,2756,-5468,-552,-25860,-6791,4961
60194,5708,-9676,-72,-18119,-7011,9173
60215,1976,-7716,3288,-12631,-3163,14573
60238,-8040,-2776,3668,-15824,-5831,8161
60261,-7576,-7672,-2744,-22557,-19364,-4108
60282,7556,-21624,-8360,-20118,-26858,-10147
60304,15512,-25432,-7436,-4041,-19182,-480
60326,8036,-16372,-3556,6636,-12679,16038
60348,-912,-10180,-3872,124,-20121,12421
60370,9448,-19764,-9472,-3667,-31876,-8129
60393,25468,-22980,-12940,10965,-29092,-7424
60414,27660,-8652,-6944,19690,-14186,12282
60437,16580,-3388,-2732,6992,-3863,20580
60457,8008,-17304,-6016,-2698,-8833,14053
60480,17372,-29404,-11232,11187,-20032,4517
60502,26748,-14584,-9012,27572,-9922,13113
60524,12704,280,-5184,3930,-2121,7508
60547,15240,-22940,-15308,-11188,-18076,-8055
60568,32767,-32768,-23848,8958,-22497,-4161
60591,32767,-28336,-22448,32767,-2312,1962
60612,11860,-1716,-18188,32767,-4549,-8519
60634,22828,-1544,-21652,9472,-26089,-28256
60655,32767,-23048,-28456,7354,-12259,-17950
60678,30276,-20020,-29764,32767,7548,-7777
60700,21648,7224,-25380,32767,-7377,-14701
60723,32767,12120,-18688,5664,-1476,-25330
60744,32767,-12300,-19784,-8477,30075,-8611
60766,9972,-18368,-15712,12258,32767,2430
60788,-276,-3440,-9052,24415,15877,-14084
60810,8244,14528,-4444,15246,4276,-26012
60832,19916,17960,-4396,-10586,5662,-32768
60854,24272,8648,-3756,-29283,18974,-24441
60875,15052,-9004,-4804,-30831,29183,-19543
60898,4004,-13408,-3172,-6801,19314,-16047
60920,10668,2180,-372,6125,558,-15202
60942,24796,10368,2276,-3139,11582,-7612
60964,12540,7372,1344,-13062,32258,3576
60986,-5496,3732,2312,-11461,22370,-698
61008,-612,820,4016,-6746,2142,-8388
61030,10132,3120,4884,-3876,3266,-2253
61052,5344,6400,4252,-5788,11091,10939
61074,-2200,8544,3712,-4961,2870,12141
61095,6788,8552,3764,-6746,-6414,6201
61118,13520,8820,3980,-12836,4002,7154
61140,4408,6396,3184,-21354,11570,9410
61162,1184,-3124,2192,-19565,3561,4032
61184,6232,-3732,3408,-9485,-1153,5646
61206,5844,3084,3652,-10077,2347,9126
61228,3836,-692,1552,-18180,2291,2274
61250,4420,-9044,-1072,-17643,-1257,-5991
61272,7000,-9292,1100,-10466,-5204,-1649
61294,8984,-4156,1456,-8721,-4904,7560
61315,3712,-2828,1432,-18853,-1170,12891
61339,552,-17172,-2228,-28541,-6420,3600
61360,7716,-31556,-2596,-15044,-13967,2103
61382,10260,-24736,416,5051,-9764,10880
61404,3324,-11228,1668,6618,-8892,19344
61425,-3668,-9188,972,-3531,-9905,11471
61448,-5700,-11760,-5476,-5206,-27745,-9562
61471,14824,-10784,-13180,1414,-32768,-22717
61492,32767,-6508,-13224,-1187,-27804,-6526
61514,21656,-14296,-9784,-13061,4724,17333
61537,-6356,-29788,-12448,-4157,-13719,11004
61558,19616,-30544,-18636,22138,-32768,-9136
61580,32767,-17064,-15020,19357,-22111,5251
61602,21656,-24136,-12208,-100,13665,24376
61624,584,-32768,-16700,13491,-16387,-7554
61647,31828,-21880,-23324,32767,-32768,-27662
61668,32767,-1872,-20340,24980,-5951,-12319
61690,29104,-6876,-21232,5608,10746,-5908
61713,22588,-19736,-23656,11843,2189,-16598
61734,27756,-10468,-24716,28480,-619,-20759
61755,26996,4352,-20516,23226,7967,-14776
61778,22404,5604,-16996,6930,9869,-14881
61800,25668,-7472,-16616,3272,12742,-16279
61822,22968,-7884,-14884,16674,20700,-11158
61844,13772,8740,-9000,16734,21243,-12449
61867,12300,12160,-4752,-3834,15593,-20953
61888,20320,-164,-3736,-12230,17534,-22351
61910,14608,-516,-2640,-4233,26475,-16558
61932,5648,10744,-756,-4273,18633,-21721
61954,11016,13096,-40,-19624,6374,-22031
61976,22232,-1672,-1440,-26442,11880,-15525
61998,15992,-9256,-1700,-9613,25613,3156
62019,3016,1320,620,4349,19669,4282
62042,4324,13228,4052,-822,10670,361
62064,5736,15496,3800,-14359,14950,-1497
62086,-188,8496,1644,-23094,13640,-718
62108,968,2388,160,-20563,2326,-2541
62130,8252,948,1992,-18150,1806,2863
62152,2512,1524,2772,-18818,10440,9622
62174,-7924,1432,1360,-19401,3901,3232
62195,-2336,192,-1120,-20076,-12644,-4068
62218,12832,-2964,-1736,-22443,-10036,-6453
62240,8544,-3872,-1192,-22717,4671,5785
62262,-4964,-5280,-1648,-23491,1390,6072
62284,-5456,-7820,-2532,-20764,-12482,991
62306,5732,-12796,-4488,-19089,-20087,-2758
62328,10820,-17260,-4960,-14769,-11520,3334
62350,248,-14808,-3860,-7790,-11805,1211
62372,3264,-17172,-6544,-6841,-28224,-3761
62393,17816,-22320,-9504,2144,-29635,5777
62415,20044,-18808,-6600,10506,-16166,17921
62438,4068,-9472,-3148,1176,-9325,12221
62460,2032,-23684,-8760,-7528,-24678,-7073
62483,17280,-32768,-16400,12979,-32768,-7703
62504,25744,-17936,-16696,31330,-25378,-886
62525,23868,-4012,-14660,16414,-17206,-2434
62548,25580,-16416,-18700,3395,-17771,-7006
62571,32456,-26244,-21208,11740,-16534,-2644
62592,32767,-26880,-20948,22980,-1444,620
62614,16904,-14888,-19820,31376,-927,303
62636,23224,-7328,-19736,26112,-13191,-12883
62658,29716,-6724,-20392,20622,552,-9144
62680,18056,-3564,-20832,17827,2167,-14795
62702,25672,-7424,-22336,9889,-8058,-25028
62724,32767,-17912,-25656,18691,5841,-15026
62745,26616,-1740,-22168,32767,19983,4066
62768,14108,16648,-13336,24162,17474,-1706
62790,18880,9380,-9400,-6067,12037,-18809
62812,24536,-9956,-11524,-10270,19743,-18740
62834,17540,-9788,-9144,6386,27339,-10204
62855,7900,3132,-2956,6563,21011,-16764
62878,13988,3768,-908,-3370,11768,-25119
62900,19796,36,-148,-5182,17117,-18285
62922,9272,3492,1216,-88,21736,-7225
62944,3432,10868,3548,-4208,9182,-11014
62967,16760,3084,1084,-15777,-892,-15055
62988,26928,-8220,-1072,-8141,14708,-4147
63010,7880,2628,820,6196,24863,8516
63032,-200,15332,5300,-3288,12825,158
63054,8368,5360,4568,-16582,9115,-6815
63075,2920,-64,2948,-7727,12483,124
63098,16,10060,3316,-2449,-1219,2269
63120,11124,11160,3768,-12199,-1910,6783
63142,6676,5464,2860,-19421,8211,11635
63163,328,-552,-88,-17328,-1191,677
63186,7720,-1852,-1284,-11724,-6861,-2712
63208,10852,-36,-300,-11167,-3721,-1728
63230,7392,-1000,288,-12419,1400,1168
63252,1844,-2532,-396,-12135,-1113,705
63274,5416,-5192,-2144,-11418,-7313,-4454
63296,8968,-5160,-388,-9104,-3686,3325
63318,1892,-1784,1200,-12275,452,9696
63340,-4400,-7244,-1820,-19795,-6201,1332
63362,1856,-17452,-5348,-15927,-16757,-11890
63384,17236,-21884,-6692,-2242,-20913,-7479
63407,21676,-14356,-2840,10340,-5271,17074
63428,4296,-1408,-136,7745,4132,23630
63450,-7656,-500,-2876,-13488,-13350,-3013
63473,15676,-21032,-9556,-19536,-29272,-21721
63494,31876,-29288,-10924,2125,-15207,-3753
63515,23004,-15476,-6808,18170,-2996,18862
63538,11428,-5932,8,6808,-279,19325
63560,6188,-18000,-2332,-9278,-7927,6186
63582,12640,-30640,-7500,3208,-16577,-3880
63604,11580,-18220,-9508,16051,-21983,-9013
63625,23636,-8596,-14760,13584,-32768,-24341
63648,32767,-4736,-17268,8564,-23688,-15897
63670,32767,-14972,-18808,319,-451,-1523
63692,17908,-17100,-18140,16271,7349,116
63715,15968,-1808,-17912,25314,-15501,-17862
63736,32767,1872,-18532,14643,-10436,-18120
63758,32767,-9620,-20732,6420,9961,-4622
63780,17148,-7512,-19764,22074,10243,-4135
63802,20736,7236,-19000,23602,-6256,-14013
63823,32767,-3708,-22596,9042,2705,1757
63846,32767,-7016,-24336,28151,28479,21432
63868,16952,16700,-14968,23661,25927,3851
63890,22100,7764,-10736,-12968,22120,-9706
63912,20608,-24836,-12056,-8219,32767,8642
63934,760,-19760,-9012,31404,26069,8755
