timestamp,ax,ay,az,gx,gy,gz
94,24304,4964,-2128,4526,47,-1699
116,16744,1720,-1924,-2324,6611,3054
137,12476,2200,-716,131,3215,-4670
160,12176,3796,-120,-3463,1028,-4404
182,12452,-1596,-2200,-1953,-2652,-2811
204,19272,4612,-4820,3797,-6756,-2527
225,27104,10484,-5744,-2423,2096,5861
248,14648,10980,-5188,-4958,6918,8005
270,12916,16944,-6704,-5226,-152,-3401
292,26328,23200,-12252,-11832,-3481,-5482
314,32767,22668,-15476,-19429,10857,14814
336,14340,22408,-13992,-25447,20798,27852
358,7592,12392,-13064,-32767,14262,11795
380,13088,4492,-13936,-32768,12277,-1920
402,15256,-6888,-14740,-32768,11569,4761
425,21344,-24740,-17444,-19322,19619,28870
446,80,-20524,-7636,-19182,32767,24464
469,-31284,-32388,-3056,-26124,14543,-10808
490,1936,-32768,-2640,-2494,-32768,-26509
512,32767,-27736,-12924,10867,-8792,8124
533,12616,-14428,2688,-6556,32767,32767
555,-32768,-32768,6552,-16874,4027,-2180
577,20584,-25132,660,18842,-30351,-32768
599,24564,-2024,4176,-6084,14594,17015
622,-4324,-20528,2028,-4231,7559,8136
643,5600,-12216,2392,2081,-9458,-4568
666,18304,-19424,-496,-5416,-8723,-2425
688,20572,-18640,-1028,8070,-1511,-1017
710,14824,-9672,1688,1196,1111,3392
732,12444,-20380,204,780,-2693,1236
753,19576,-16280,124,7644,-5946,-2246
776,19300,-14712,1504,725,1662,3028
797,8120,-23900,524,3745,304,-238
820,15292,-20652,-1400,15006,-12239,-17408
841,27136,-16320,-676,8078,-5881,-8482
864,21468,-28952,-2340,10103,3330,-552
885,13520,-23752,-2940,23582,-4551,-9304
908,24656,-14652,-3296,21489,-9572,-10320
929,25860,-11884,-2996,17813,1456,1300
952,17232,-8572,-3344,13391,-2023,-3982
973,26900,-16000,-5236,10434,-3043,-7503
996,24720,-9260,-6120,20751,6301,-9377
1018,18840,2280,-5248,9630,10842,-17143
1040,14924,-8984,-7540,3591,5775,-19376
1061,26152,-5268,-9888,21393,741,-16195
1084,27708,15916,-6208,19258,18488,-323
1105,4868,9748,-3172,4166,25545,4543
1128,620,4840,-916,12735,9079,-10699
1149,10076,20504,1208,14270,4862,-12420
1171,10524,21908,2276,-4552,11808,-632
1193,-784,10028,2412,-8727,11390,7587
1216,-2800,6032,4808,-1769,-2399,4376
1237,9996,10344,3912,3293,-7110,3716
1260,9636,6196,2460,-4021,1316,12119
1281,5808,-4448,868,1141,-642,11327
1303,10432,-2672,748,12710,-1144,11672
1326,10272,13632,2972,8796,5734,9747
1347,2988,11152,2812,-13056,9909,3959
1369,1616,-6692,2412,-16907,2775,-859
1391,8412,-15400,2028,-5284,2101,195
1413,7180,-5764,3216,3361,1940,3300
1436,8128,-3440,3012,-3173,4022,9923
1457,1488,-7228,3520,-4211,6215,10760
1481,-3504,-8524,3724,-5580,1852,-1338
1501,-3016,-12704,884,-8991,-2267,-13521
1524,628,-24660,-3568,-2939,-3796,-8100
1546,-6164,-19244,-4256,15621,-6624,-2412
1568,-7760,1180,-2284,13866,-14604,-9273
1590,3172,-3816,-2812,-1127,-22762,-16398
1612,10184,-11976,-2376,4905,-12741,-1170
1633,-3800,-4080,-260,11056,-12113,869
1656,-5780,2860,-1744,2014,-28437,-12529
1678,24704,-2728,-8936,-2168,-32768,-23141
1700,32767,-16116,-13972,3928,-23548,-523
1722,32767,2656,-10624,25927,-9212,3230
1744,32767,21172,-12044,12223,-24147,1717
1766,32767,10280,-11532,555,13493,32767
1787,16736,20,-3768,-6134,25305,25626
1809,10988,-5392,-5080,4169,-9610,-8786
1831,32767,4140,-12744,7766,-17732,-7855
1853,32767,2560,-13296,1853,11081,11111
1876,20520,64,-6752,-3447,22755,12914
1897,6912,-9448,-3596,-3650,8471,175
1920,15568,-8516,-3064,2572,-1440,-6182
1942,18644,-4196,-3224,2150,1918,-813
1963,14948,-3604,-3024,1272,3109,2413
1986,13164,-4288,-3724,4437,2021,-1309
2007,17956,4376,-5032,2656,-5201,-10308
2030,27932,3404,-6612,-6117,3262,-6812
2051,17988,1152,-6332,-4683,9585,-1145
2073,14912,6024,-5140,-1173,3410,-6705
2096,17628,13312,-6252,-2441,1784,-8599
2117,19916,23320,-9760,-6907,-722,-9360
2140,28812,21656,-13440,-21281,-633,-7741
2161,32767,13988,-16928,-19353,9147,5453
2184,22772,22024,-15940,-19170,19113,17067
2206,12712,18840,-14924,-29229,24357,17699
2228,872,7140,-14568,-32768,21385,10468
2249,-4516,-1224,-9712,-28719,8435,10793
2271,14132,-5560,-16772,-24364,-22,24035
2294,17636,-14088,-17336,-24656,29473,32767
2316,-29536,-15032,-9528,-32768,32767,17836
2338,-22464,-32768,-13400,-32768,-25281,1153
2361,32767,-32768,-21008,12099,-29547,9702
2382,29248,496,-4140,10764,32767,27074
2404,-32768,-24640,-1388,-32768,32767,10833
2426,-1296,-32768,-8044,-9315,-32768,-32768
2447,32767,-21672,-2140,32767,2107,-6658
2470,4932,2084,3716,7320,15111,14477
2492,6028,-20884,-456,-2806,1181,3146
2514,8008,-18824,-436,11767,-1467,-3876
2536,13244,-12400,448,8185,-5867,-2646
2558,16496,-17504,-1056,6583,-4043,516
2580,18688,-21176,-2308,6637,-4296,-3982
2602,20860,-26528,-3148,8377,-2268,-13246
2625,25608,-23000,-2804,14167,-2594,-13879
2645,31120,-22164,-2564,17472,2560,-5067
2667,24908,-16384,-1936,20555,9266,2973
2690,19844,-16000,-1240,16004,4733,-3570
2712,25140,-18496,-1440,12606,5415,-4097
2733,20164,-22876,-2664,17050,10081,-993
2756,11612,-14492,-1484,25137,8078,1270
2778,10676,-3572,-1084,19999,684,-2473
2800,9304,-760,-1096,9598,-593,-7697
2821,6596,-5436,-2656,759,-7375,-12045
2845,17448,-14068,-6528,8472,-13171,-18449
2866,27556,-1252,-9368,23353,-5302,-12631
2888,23304,7696,-4448,14748,16845,-5666
2909,4804,480,-2888,15104,18297,701
2932,1496,10692,-956,27631,4915,94
2954,7160,22664,1424,14131,-184,946
2976,9124,11844,2612,-2448,5692,2587
2997,4888,576,3140,9482,1408,3623
3019,11732,18320,1296,21961,-4535,5342
3042,13680,25860,3412,-220,3314,13411
3064,7932,5520,3068,-9909,7501,15353
3086,5844,1544,3344,1759,1766,7396
3107,11176,10416,3344,-2130,1359,596
3129,10900,4476,2948,-15045,9269,1289
3152,3736,-5872,3124,-10674,8195,1046
3173,2316,-1460,4048,-2543,798,327
3195,4824,3796,4244,-7211,-185,2081
3217,5168,-4800,2328,-12717,381,4536
3239,5084,-9848,1828,-7683,2914,2848
3262,-5260,-2948,1908,-8445,11966,-517
3285,-20072,-10720,-1132,-18100,6987,10424
3306,-26760,-23772,-320,-8622,-4580,8388
3327,-32768,-14356,-2428,6758,-17754,-8805
3350,-19156,-6340,-8624,9630,-32768,-26006
3372,-3588,1796,-7944,3863,-32768,-6541
3394,-4732,-6136,-9640,-2976,-32768,4624
3415,12108,-576,-18828,4009,-32768,-9472
3439,31516,3076,-22704,-20337,-32768,-19263
3461,32767,-32024,-32768,-11544,-32768,-30511
3482,32767,-15508,-31140,29629,-12555,371
3503,32767,18948,-22288,24697,12035,9785
3526,32767,12916,-24696,896,-11158,-13871
3547,32767,5856,-25120,319,18400,7368
3570,29484,-5268,-21396,-1785,24969,20647
3593,21740,-12296,-16936,10460,14071,14295
3614,18760,-1324,-9596,3854,18316,4422
3636,7168,-9620,-6840,-4890,15815,-3117
3657,11548,-13200,-7188,5511,2731,-10206
3680,19360,-1560,-6064,9387,5263,-5103
3701,15652,2788,-5120,2226,9103,-4599
3724,12304,-324,-4540,-1697,7167,-6761
3746,15944,-2888,-6144,-740,2962,-9134
3767,20660,568,-6744,2584,5792,-4908
3789,19796,7260,-7684,348,6745,-1846
3811,22868,7284,-9132,-4576,10046,-5058
3833,20716,10088,-8812,-5356,12861,-9644
3856,19488,15040,-7872,-5116,10957,-6743
3877,18640,17976,-8468,-6424,13156,956
3899,13460,15552,-9144,-12459,14183,3135
3922,12712,9452,-10524,-11530,12334,-3398
3943,9968,14548,-8888,-12245,6440,-2785
3965,15044,11808,-8904,-21535,7521,-271
3987,5524,7148,-8236,-26350,10697,1213
4009,6520,-3316,-11208,-30754,150,-5794
4031,8000,-7044,-13000,-29622,292,5106
4053,8844,-19560,-14776,-32768,-817,8647
4076,10164,-11464,-13068,-24271,-8634,-6989
4098,31460,-8780,-16592,-32768,-5094,14678
4120,28864,-32768,-22256,-32768,24393,28900
4143,-2700,-32768,-6796,-11760,23466,14590
4163,8840,-14972,872,-22809,8494,11083
4186,-14476,-27376,5120,-19795,23071,14950
4208,-15584,-24164,1196,-7964,-24320,-13074
4230,32767,-22180,-3124,4007,-30584,-20470
4252,29400,-7060,-632,-213,4364,2061
4273,13064,-18540,-3440,-2781,132,3179
4296,16756,-10228,-2912,14472,-2628,-5562
4317,16240,1900,64,3510,-2204,-8
4339,20772,-16024,-2508,-7025,-5164,-5952
4361,28924,-18724,-6752,13512,-1163,-8632
4383,25116,5764,-4060,14752,8481,-4118
4406,16668,-5752,-1768,-9595,9084,-3099
4427,19812,-29104,-4216,7249,-2168,-10228
4450,30536,-8888,-6160,25785,-488,-15985
4471,32656,132,-3960,11997,11816,-5345
4493,29520,-15736,-3704,7480,16163,2730
4516,32767,-24672,-7168,16387,15443,-2295
4537,30856,-18668,-6516,24176,24222,-45
4559,19848,-9088,-780,23594,22756,756
4581,18304,-8428,1180,22417,10146,-2473
4603,29468,-1732,212,23676,-1687,4076
4626,32767,-2444,-640,10479,12876,27109
4647,11688,-17724,100,-221,32767,32767
4669,-26460,-25732,1040,4319,9235,16490
4692,-10984,-24580,-6816,21080,-31294,-18395
4714,23636,4936,-9764,26792,-28365,-29338
4735,28644,-4092,-9036,2511,4712,4199
4757,2820,-16052,-11848,32767,9050,5929
4780,4428,30852,-6728,32767,-3135,-18065
4802,7708,32767,1804,-2066,2782,-19901
4823,10704,5820,-3516,-2005,362,-19018
4845,17080,32767,-876,23701,-1504,135
4868,11592,32767,5224,-13640,17940,26027
4890,-8568,-188,4060,-20598,11396,3504
4912,4148,-7856,3232,-3317,-3921,-22386
4933,15612,168,2768,11577,1050,-4765
4956,6976,18880,5140,11259,6326,6817
4977,4196,18388,4788,-3866,-1429,-306
5000,12900,7660,4460,-9784,-4168,-4501
5021,12644,-4536,3256,-4856,1132,9639
5043,5864,716,1908,10854,-3037,10180
5065,15120,23024,3372,1358,-4676,-1624
5088,14144,6984,1908,-25534,7296,4756
5109,5324,-16400,2464,-14191,7831,4731
5131,592,-7360,4240,1274,1174,-494
5154,-832,100,2408,-7677,3765,-249
5176,-6108,-20416,-3336,-17244,-302,636
5197,-2644,-32768,-6116,4537,-6140,2708
5220,-6400,-13828,-3232,26985,-10267,4027
5242,2440,4916,-3068,18316,-16727,-11997
5263,8584,1324,-596,-69,-4274,-795
5286,-5144,-16432,2916,6281,-2678,18616
5307,-8048,4192,7688,16232,-19523,6560
5330,4492,-4540,3140,-16792,-23386,-5514
5352,20660,-32768,-14116,1316,-32768,-28187
5375,32767,-4256,-13748,29571,-32768,-11234
5396,32767,11440,-2424,6982,20829,23487
5418,-8224,-9240,-2156,3196,5095,4061
5440,32767,-2884,-23764,32767,-32768,-32768
5462,32767,32767,-28924,32637,-24123,2528
5483,32767,15992,-19364,-15318,32767,32767
5505,-27624,-11676,-6312,-1121,29016,9436
5528,22048,7448,-18760,29092,-32768,-32768
5550,32767,31964,-20916,5815,-11801,-4513
5572,32767,5604,-16244,-23277,32767,32767
5593,-13572,-13236,-5320,-9198,22522,12357
5615,14512,-11232,-4348,7160,-12161,-16425
5637,24516,3392,-3660,3205,10499,-3293
5660,15468,-3596,-6160,-3151,9418,-6122
5681,15632,4348,-4400,4689,8898,-4715
5703,10668,9068,-2900,-6402,8364,-2887
5726,21472,-2268,-8092,-4634,-12,-16095
5748,27664,13204,-8508,6895,10366,-11544
5770,19716,24536,-5976,-8749,17855,-6485
5791,11116,14420,-4948,-13862,13951,-11149
5813,13868,18612,-6076,-10341,2486,-12673
5836,22468,17360,-6800,-21564,10029,-9271
5858,4816,6744,-1168,-26892,15790,2039
5880,3392,-9824,-3428,-17566,-4067,-9135
5902,10168,-5580,-6968,4258,-6709,-15737
5924,7816,19676,-3944,-2971,-13346,-22150
5946,11396,23408,-8160,-30305,-21225,-7966
5968,32767,132,-19612,-32768,-14910,13795
5990,31144,-19276,-19804,-32768,16314,27042
6013,-13092,-32768,-9428,-32768,25472,26247
6034,-4924,-32768,-7424,-6992,-32768,-23562
6056,32767,-4124,-3064,-3726,-25553,-9626
6077,29844,-24832,4396,-32768,32293,29736
6099,-24112,-32768,4036,-7700,11346,12675
6121,9416,-13260,-3916,30375,-32768,-28773
6144,32767,10612,-3932,10823,-14097,-4223
6166,21620,-4836,-2872,-12100,30699,19436
6187,4744,-20572,-2556,7388,-2735,-1293
6209,32767,-3404,-3624,22931,-8007,-10317
6231,29988,4124,8,2172,20171,9955
6253,11740,-17972,-476,1897,12362,6191
6276,26608,-13220,-3800,25138,-9413,-14273
6298,32767,4688,-2612,16021,8215,-8429
6320,26392,-8396,-468,2814,30380,7870
6342,18916,-15596,-160,17953,5045,-9243
6363,32767,-580,448,23720,4210,-8759
6385,32767,4356,3432,9082,20836,13945
6407,15396,-7420,4708,6828,16079,19934
6430,17216,-3136,3100,9161,-7140,3865
6452,32767,-4352,-1724,586,-3247,1955
6473,29944,-11112,-4252,2882,19141,15297
6496,12916,-9124,-4364,9514,15157,8967
6517,12080,-5396,-1328,9920,8761,8030
6539,9124,-2880,892,14593,10557,9913
6561,2160,4476,1592,13991,6771,9321
6584,3924,-796,2128,7806,2935,7626
6605,-1636,-3528,3572,14055,3371,3216
6627,-6908,3472,5628,21246,-4850,-11461
6649,3744,12584,1660,21603,-13238,-15068
6672,13064,14332,2764,12310,-4247,-4750
6693,8540,2744,2048,8319,5098,5121
6716,4476,8000,232,24194,1763,-3176
6737,8472,27476,1916,8380,-59,-7995
6759,13692,4956,1372,-17698,6743,-2369
6781,1720,-14712,-512,7559,11854,2361
6803,3152,17440,508,26821,-5023,-10532
6826,14740,32767,3168,-6040,481,-2745
6847,10580,340,660,-25958,10426,11401
6869,-88,-11216,2236,-2592,7169,10420
6891,-1376,4080,4592,4771,-1981,6446
6914,4216,11504,3852,-5595,-4906,4323
6936,3956,2836,2060,-18811,-175,1049
6958,-8,-11428,-1024,-14702,-4436,-1461
6980,3968,-9060,140,-3105,-4455,245
7002,6944,-13056,28,-5586,-768,12241
7023,-3504,-15292,1392,5436,9022,12043
7045,-19676,-544,3136,6353,1998,580
7067,-5580,-11244,-516,-7162,-23472,64
7090,16860,-22632,4192,8062,-2500,10980
7112,-23500,-344,11036,11733,3191,3833
7133,-6800,-2932,-3552,-1793,-32768,-24984
7157,32767,-21056,-12736,-3999,-32768,-17021
7178,29080,-24504,-2584,23251,27649,25395
7200,-12408,6760,-1828,27584,-32768,-19874
7222,32767,23728,-24432,28863,-32768,-32768
7243,32767,20856,-18700,-9844,23496,32767
7265,-1888,-14884,-9192,1082,32767,32767
7287,13232,964,-13024,19406,-32768,-27573
7310,32767,18808,-19536,10366,-20356,-6268
7332,32767,5172,-12908,-8463,28587,31866
7353,1284,-10008,-6612,45,11809,15751
7376,20188,-7576,-7672,7625,-15923,-12743
7397,32767,4448,-10112,7341,-5878,-8098
7420,32767,3024,-11224,-558,6555,985
7442,22752,-916,-9164,-322,13089,1937
7464,14304,-1252,-8188,1487,8221,-7897
7486,20968,11212,-10440,8561,-1603,-15682
7507,32767,19776,-11696,-12634,3988,-2160
7530,22460,2708,-12432,-16303,23752,19903
7552,6928,4680,-8268,-9953,15760,10341
7573,14284,1944,-9508,-15499,8290,-5189
7596,14644,-5172,-10672,-9545,15561,-8194
7617,9704,15224,-7008,-3369,5196,-11901
7639,20352,18024,-8976,-24386,6451,-3170
7662,16724,-1484,-9840,-26260,17591,6651
7683,5668,1548,-4664,-15900,12492,-494
7706,7992,4604,-4984,-18960,5205,-7452
7727,8740,4680,-6248,-19145,2392,-7933
7749,20552,5020,-9476,-26846,2580,-5743
7772,5928,-568,-4456,-32768,20596,-1673
7793,-6036,-32768,-6772,-32768,-4487,5284
7816,27908,-32768,-12916,-13144,-23996,-23769
7837,32767,-3544,1796,20896,8441,-8084
7860,11080,11560,5428,-32768,12479,8781
7882,11152,-32768,-5228,-32768,5322,-34
7903,16224,-32768,16,15004,-4703,-9749
7926,25128,352,8060,11222,2491,-3208
7947,14964,-10000,5452,-13103,11740,10305
7969,6260,-24532,1688,1471,-400,2404
7992,22196,-13068,-1048,13518,-12531,-10961
8014,32767,-2220,312,13207,1013,-4233
8036,27352,-88,1508,3456,7815,4900
8057,20700,-10084,2248,5098,14688,8436
8079,10860,-8200,5328,13003,2841,-4069
8101,27532,-2212,4028,9256,-8634,-12984
8124,32767,-13160,1736,854,5090,-2634
8146,28880,-18540,4116,13218,15303,-212
8167,21692,-4684,9236,19672,7541,-6046
8189,24308,-1144,8484,11570,1132,166
8211,32116,-5236,4596,7225,781,3157
8233,32332,-9260,492,3621,5524,-859
8256,24464,-9560,-1928,-1889,8905,4312
8277,20460,-15856,-7208,3799,4874,122
8299,21384,-9300,-9236,13368,6013,2996
8321,20732,-4136,-9128,17153,14134,6355
8343,7732,5776,-4616,25672,23581,7764
8365,-6772,21060,-1036,20541,14065,4555
8387,-2004,13604,76,1597,-2757,5639
8409,8432,316,-2452,12682,-2118,9288
8431,8504,23404,-2140,22415,-327,-2249
8453,11236,28368,-80,-6907,5050,-9269
8476,7404,876,-740,-14273,10262,-2332
8497,-144,-2556,2148,2382,9307,5109
8519,-1460,9540,1816,10430,633,-1125
8541,4128,18764,744,-915,-5937,-5905
8563,10248,7160,508,-14174,-2296,-154
8586,7720,-4724,668,-5113,-1120,1204
8607,8720,632,488,4088,-3446,-2003
8630,10428,5112,752,1389,969,-1621
8652,7160,1788,1848,-1764,1865,-1119
8673,9804,-1844,1668,-2912,2039,1967
8695,6792,-8284,1004,-855,8749,2431
8717,-3872,-3852,696,-326,6795,-12822
8740,-3316,-5848,2980,-7327,-5517,-17304
8761,4292,-19196,-1756,-3561,-7957,-5248
8783,3244,-19676,-3916,11941,-5846,339
8805,-820,-10624,-1564,16923,-9606,-10456
8827,7100,-4180,2992,17690,-10203,-11925
8850,-1584,-1240,1624,15822,-6059,-317
8872,-3400,2680,-1196,13047,-22032,-7376
8893,14268,-1016,-8404,5077,-31377,-6132
8916,27544,-8424,-7620,11366,-15486,3660
8938,11412,3916,-4520,19240,-11377,-7449
8961,27172,11820,-13852,22741,-32768,-14850
8981,32767,19164,-19216,20559,-30504,16651
9003,32767,10136,-19004,10485,-2469,24354
9025,32767,7624,-15292,14544,6753,9413
9047,32767,15416,-12344,12474,9110,4458
9069,32348,10904,-11764,6760,9606,5035
9091,27908,15424,-12612,12939,9626,-2617
9113,30892,21700,-11264,-4094,6548,4484
9136,28288,-124,-12032,-13580,17867,16931
9157,13300,-6000,-8476,-1056,16438,10736
9180,11216,-168,-4780,-203,9735,-3380
9201,12148,-1644,-5140,1713,6488,-9810
9223,16420,9212,-5864,5788,3708,-9734
9246,18188,13952,-5012,-3880,10548,-1380
9268,9808,7780,-5052,-9246,11123,-2130
9289,11708,5116,-6268,-2013,3172,-8876
9311,21332,22636,-7832,-1666,504,-8159
9333,25500,18588,-10376,-22354,10580,-1361
9355,15984,4940,-9720,-17692,16282,17
9377,11792,12228,-7304,-15235,7300,-7360
9400,20112,3704,-8548,-19363,9905,-6004
9422,11460,6456,-7020,-7619,9779,-10674
9444,13424,21436,-4188,-22458,4350,-10186
9466,15448,-2824,-7196,-30728,8535,-2581
9487,8720,-1972,-4184,-17175,5135,-2198
9509,7720,-3592,1344,-28567,4160,5426
9531,5948,-29800,-2448,-32010,-6758,4810
9553,11340,-26520,-1444,1393,-14406,-13476
9575,18536,-3000,2616,-6864,-15025,-10113
9598,19352,-15556,-636,-15760,-11126,-1409
9619,22820,-13336,-272,-4691,-14310,-5995
9642,27484,432,3140,-6629,-6612,1813
9663,18344,-3012,3712,-18099,1361,12909
9686,17528,-15716,-484,-15109,-6250,281
9708,30544,-20400,-3160,-3364,-5547,-1074
9729,22668,-5304,1976,10701,13415,9542
9751,9200,3176,3752,-827,2215,6599
9773,23940,-14200,-1448,-3005,-6656,-1089
9796,30212,-10360,-448,14777,3477,-2551
9818,24612,2084,2000,9552,8172,-1695
9839,21992,-6048,1504,5329,3923,-3290
9861,29892,-12140,344,11984,850,-7134
9883,32767,-7640,-340,17426,3637,-9915
9906,32767,-2104,-640,15844,8579,-5806
9928,32767,-2504,1496,11407,22289,10649
9949,13948,-6920,5432,14076,15830,5416
9971,16936,5008,1264,24997,-10563,-14329
9993,32767,23164,-6796,10105,-14862,-4228
10015,32767,1292,-12532,-20232,6994,11855
10037,29348,-24760,-14380,5809,32767,15022
10060,8076,3844,-9052,28422,28268,-580
10082,10944,17464,-4312,10241,20318,1789
10104,6388,5596,-3616,3597,27253,14925
10125,-4144,4352,-1720,10212,23066,14078
10148,-7304,7304,592,10478,11885,7968
10169,-3972,12124,1924,11017,2192,5096
10191,3180,18296,3668,3960,-1998,2660
10213,7564,13088,1552,-3001,6135,2829
10236,2908,10000,3072,-2910,4801,-5248
10257,3500,8328,3556,-2454,5016,-3858
10280,844,10404,4032,876,1525,-4590
10302,5236,16808,4704,-4686,-756,-1745
10323,4452,9508,4188,-12108,1145,975
10346,5332,3728,2796,-6093,-3105,-4644
10367,11212,11132,3376,-6149,-5140,-4573
10388,11456,5748,2376,-12848,263,4357
10412,9316,-1980,560,-8347,-1377,1703
10433,13060,-3464,-1120,-6581,2391,1076
10456,3200,-4900,2652,-12332,12653,3378
10478,-11760,-21148,2584,-14496,9147,-3456
10499,-17112,-28972,-2192,5942,-6053,-8286
10521,-4332,-20340,-5208,16033,-17682,-8340
10544,-8252,-16520,-3216,17096,-7182,-5702
10565,-18560,-11412,-6564,27642,-20689,-18446
10587,100,3144,-11964,32767,-32768,-23740
10610,22000,10644,-10888,24334,-30228,-9410
10631,18076,3516,-8860,19388,-17112,3642
10654,18904,3788,-11624,31390,-26086,3340
10675,28692,23000,-17464,32767,-32029,676
10697,32767,32767,-21136,24846,-32768,8435
10719,32767,18764,-18236,-3927,-530,28178
10741,32767,-5324,-15800,9435,15703,31906
10763,28168,-1304,-13060,11951,520,5018
10786,31244,3720,-14380,14039,5267,-2503
10808,32767,13072,-14308,3109,5747,4446
10830,28172,684,-13224,778,17541,20668
10852,14356,6164,-11480,7975,15951,13657
10874,13868,7164,-8032,-2225,5806,2181
10896,20760,-2588,-9232,-669,4984,765
10917,19064,1192,-8876,3582,7261,493
10940,16524,4632,-9208,3133,6751,-4047
10962,19448,11144,-9228,-3965,4473,-7463
10984,22168,3708,-10948,-7696,11019,-4039
11005,15624,8744,-10476,-4635,10324,1165
11028,17296,10268,-10896,-9320,11830,-591
11049,12476,13640,-9208,-14190,12967,-4298
11072,13960,8476,-9620,-20562,8844,-8452
11094,16056,6632,-10340,-15682,10556,-3746
11115,11988,12640,-7832,-19644,12185,-3333
11137,10816,1776,-9636,-24390,8714,-8082
11159,12588,1652,-9360,-15195,6221,-10390
11181,17100,4824,-8500,-17904,4739,-5404
11204,11224,2480,-5216,-17448,13786,1765
11225,-2432,11632,1060,-20035,4642,-8360
11248,13648,-8644,-7396,-32768,-18838,-13727
11270,32767,-32536,-8872,-13948,-2799,-11316
11292,5180,10708,3256,1533,8975,-428
11313,-996,7648,-2456,-32768,-19459,1226
11337,26068,-32768,-11168,-32768,-31052,-3798
11357,32767,-32768,-7932,4664,-14587,-6025
11380,32064,5408,5220,725,7044,4222
11401,18656,-8480,4180,-22547,1363,10888
11424,17952,-11748,252,-8317,-8819,6814
11446,32767,-13208,-1448,-16203,-1580,6360
11468,14588,-24156,-1060,-1274,11884,7120
11489,13628,-2384,236,15007,-9791,-12050
11512,32767,6324,-1484,-223,-1577,-2562
11534,26084,-13212,-3048,-5706,16301,10241
11556,21664,-22880,-4332,10791,3864,-6361
11577,32032,-4992,-2992,23854,6833,-12121
11600,30840,6264,740,12556,15901,-325
11622,20696,-2056,3808,10228,16488,6482
11643,14636,-3708,4768,8942,2097,4180
11666,32767,-16904,-6172,7819,-11758,-22410
11687,32767,-6940,-8656,23718,11731,-14137
11710,32767,6140,-5064,13454,31803,13326
11731,14008,-156,-1744,5007,21415,24418
11753,19920,-11204,-7128,3165,2348,15528
11776,27336,-21704,-11476,3715,8635,4325
11798,18012,-16336,-15020,27661,18379,-6506
11818,9320,14400,-9912,32767,18190,-1049
11841,640,28468,-1312,22952,19234,6891
11863,-9336,28616,1800,5771,10761,1602
11885,-3584,19488,180,-2758,-5844,-16004
11907,16552,16960,-684,-339,-771,-10302
11929,7812,12096,2820,-7024,15808,10086
11952,-7284,3208,4992,16,14819,8693
11973,-8772,14676,3908,8087,-875,-8874
11996,6712,23048,3076,-5632,-5242,-13078
12017,10300,7192,2312,-18510,5157,-3361
12039,412,-4444,1168,-7673,5209,-2626
12062,1404,3424,520,5232,-7486,-9359
12084,12860,14864,1184,2641,-7901,-364
12105,13268,11844,704,-6407,-848,8939
12128,7192,2096,796,-9995,2616,7434
12150,5200,-8612,1376,-4685,863,4363
12172,2936,-10344,2104,5807,123,8294
12194,-248,-976,4604,6388,1553,7097
12216,-8780,-6444,3160,-8577,2094,-1230
12238,-10332,-24232,-3604,-5048,-7986,-11872
12259,-160,-31812,-7432,9483,-15799,-6063
12281,-864,-17736,-6352,31870,-10420,-3145
12303,-7316,6368,-2516,28958,-16027,-15092
12326,4076,4368,-4424,17973,-21354,-20299
12347,11612,4844,-9788,15454,-23136,-17362
12369,20888,3616,-12384,15679,-18249,-8353
12391,21992,1404,-13120,26148,-18408,4828
12413,30712,18988,-13208,32555,-19435,7801
12435,32767,17652,-12880,18615,-15628,13556
12457,32767,12672,-15364,22346,-11888,17854
12480,32767,13412,-17512,14949,-7195,18136
12501,32767,7324,-17780,7497,5131,10671
12524,29580,4304,-16436,8891,6836,6746
12545,29740,9548,-14016,13643,5348,7464
12568,25032,15976,-11816,5799,10274,12271
12589,20224,8736,-11280,-3732,5998,5361
12611,27640,3844,-13252,-2058,2014,-1765
12633,32412,5256,-13552,-2520,9581,149
12655,23148,7228,-11932,-2868,18763,5604
12677,11500,10216,-9080,-4255,18083,1272
12699,8596,12468,-7988,-7880,8934,-4967
12721,16208,11532,-10312,-13130,6602,-3469
12743,16556,6320,-10608,-15392,12408,2521
12765,9984,7896,-10128,-12536,12012,-223
12787,8996,11764,-9620,-13533,10243,-5905
12809,6836,15360,-9168,-18409,6970,-7503
12832,14620,9360,-12776,-26127,3630,-8943
12853,12464,4520,-11552,-21866,12931,2460
12875,2888,8124,-9260,-21571,7161,2062
12897,10836,5716,-9248,-22004,-74,-2297
12919,19092,5500,-9172,-21667,4641,7610
12941,5284,12284,-6976,-26916,11302,15395
12963,-2540,-8292,-10640,-32768,2720,7200
12985,-1400,-32768,-10760,-24359,-10805,-1712
13008,14580,-14848,-7560,7242,-30952,-8781
13029,32767,-1472,-6440,-25618,-16774,8397
13051,25468,-32768,-11692,-32768,-155,2689
13074,26468,-32768,-6884,-5561,-18607,-5694
13096,32767,-12984,-816,20472,-6969,-2634
13117,32767,1016,1500,-5525,24593,24388
13139,8940,-15964,560,-9245,19524,17982
13162,10388,-18608,-1308,4775,-1640,-1790
13183,23512,-11976,-2696,13615,-755,-8449
13205,21236,1968,-2268,15370,1762,-6133
13227,29236,5840,-3164,6168,1478,-4479
13250,31444,-4120,-3228,-2835,11733,1450
13272,23888,-14724,-1816,3945,9592,-2582
13294,31452,-7640,-640,11119,5391,-6847
13315,30452,-5676,1556,6509,15098,961
13338,19312,-4848,3768,6034,6344,-5693
13359,32767,-14244,-1516,2513,-948,-14750
13382,32767,-15048,-2048,12952,14116,-6377
13403,24212,-5072,780,14983,19983,3959
13425,13948,-7996,-268,5128,11139,3416
13447,19760,-19812,-6168,13495,1412,-11626
13469,32767,-4708,-8420,24478,5599,-14970
13491,23220,5428,-4328,12524,30293,4598
13513,-640,-344,-3448,7996,26071,9351
13536,-4664,1868,-2764,12693,6610,8144
13557,2300,4288,-2544,9163,4152,4186
13579,-1376,5376,-1456,7179,4809,-6790
13602,220,5408,-4060,12482,-458,-7372
13624,8420,10664,-3032,12009,-2229,-5640
13645,10572,6912,-3088,7635,10825,-1444
13667,-1228,6356,-1044,10978,14236,1308
13688,-5928,12436,364,17406,5922,-3144
13712,-1216,20304,1188,12554,-1746,-9061
13733,12652,19740,800,3416,-5677,-10729
13755,14664,12760,-516,-3654,9462,2406
13777,1928,8508,1636,-1026,7913,1525
13800,2540,11312,4160,1511,-898,-2219
13822,7504,11268,4124,-2987,-4216,1755
13843,11476,8508,2640,-4469,-2714,3467
13866,11444,3524,2200,-8411,711,4698
13887,7108,-1404,1232,-5184,1690,6874
13909,5880,-3036,1224,-4669,3142,7674
13932,-3476,-7760,152,-2950,3353,6634
13953,-6188,-4864,524,3147,-4515,-4561
13975,276,-3956,-1984,-1295,-8937,-2823
13998,3164,-21708,-4368,-2351,-1301,1313
14019,-11688,-20980,-5548,23999,-5159,4428
14041,-1212,816,-2972,32361,-27321,-18552
14063,17328,11612,212,18765,-16769,-9511
14086,9160,4532,-1440,11034,-6800,6944
14107,13652,4472,-5996,12704,-25716,-12350
14130,32767,4760,-6916,10785,-27374,-2257
14152,32767,10044,-4820,21776,3694,32486
14174,12256,24852,-964,11346,3248,13580
14196,32767,10728,-17092,-7375,-32768,-24132
14217,32767,7460,-24156,8610,-11040,-6603
14240,32767,22940,-17492,11348,32767,32767
14262,6552,15528,-3076,-15674,32767,32767
14283,7808,-16612,-224,-14978,8262,11494
14305,17352,-17108,-2940,8413,4894,-1749
14327,18524,-3912,-4132,11974,-465,-10514
14349,24212,-1912,-4996,16149,3548,-6649
14371,16452,15500,-4632,24064,4160,-6883
14394,19372,29296,-1204,-2771,3830,444
14415,15008,2036,-4872,-17783,11446,6121
14437,10004,-5648,-5276,2805,1748,-6047
14460,15084,15260,-3992,7514,128,-8226
14481,12272,18380,-5460,-7003,4459,-4260
14503,10932,12888,-7852,-9811,495,-9058
14526,14816,15040,-9872,-6761,-2875,-9700
14547,17704,22820,-10788,-10506,-1489,-5779
14569,18360,21756,-12568,-20956,1046,-5018
14592,19680,11408,-13152,-26360,2546,-3023
14613,14676,11652,-10608,-20523,4357,-3633
14634,15100,13484,-10392,-27710,230,-4896
14658,18184,11816,-8652,-28274,-68,-3847
14679,29576,13260,-8648,-32768,214,11069
14701,15512,-32620,-14516,-32768,21830,32767
14724,-5580,-32768,-4516,-20857,7161,-941
14746,940,-11204,1888,-5776,-16465,-20943
14767,22088,-4116,-1120,-24863,-17318,-8408
14790,26552,-28676,-4152,-19990,-3200,4193
14812,14520,-13644,2056,-3100,-3323,2262
14833,19312,-1900,4348,-13958,-5536,5580
14855,13444,-17864,-344,-20920,-2131,11750
14877,23228,-30344,-3436,-2942,-11594,-7822
14899,29252,-6828,1320,13120,3432,-1119
14922,14656,1228,4324,-3935,9824,7171
14943,14776,-17348,-708,1719,-698,-2864
14965,23868,-1620,-1016,16691,-2410,-6392
14987,26164,5460,1232,2272,9393,3091
15009,14084,-6676,1816,1884,8684,3814
15031,21144,-6320,1732,8292,-2834,-7480
15053,32767,-7420,1516,8890,2187,-7645
15076,32767,-7348,2636,7780,15392,2661
15097,20676,-11308,5804,11951,15298,3107
15119,26012,-7260,5724,18136,2876,-5366
15141,32767,-4868,3300,12729,6891,-2389
15163,32767,-8856,3796,11831,17573,3012
15185,23304,-8152,5828,16478,15367,-3389
15207,20896,-784,5400,19426,5495,-3455
15229,23992,9652,2552,15736,308,6223
15251,32767,4348,-5276,-9701,83,19314
15273,32767,-32768,-14592,-5484,27870,11357
15295,3548,-20516,-9960,32767,32767,6253
15317,1168,15092,-1792,32767,7873,-16397
15339,8068,18480,-52,10563,14730,-9200
15362,-2920,10808,120,9767,9462,-619
15383,4144,16704,-1336,12518,-175,2923
15406,7464,14540,-860,2723,3751,9128
15427,1780,8288,-3124,2105,11774,12617
15449,100,10956,988,8361,5727,-9835
15472,-2236,18316,1624,4088,5305,-8753
15493,424,13228,2076,-3592,659,-5642
15514,2344,4080,1912,129,505,4999
15537,2860,9764,1720,8090,-1181,2457
15560,2376,21080,4144,-4272,-2281,-4068
15582,6936,6112,3820,-14673,-3661,-2024
15603,8252,-1368,3992,-4598,-5255,7682
15625,8472,-252,3780,-4387,-4780,9027
15648,8880,-10732,2008,-2601,-4679,526
15669,8196,1572,1344,10524,-6980,-8303
15691,14248,6948,2324,-7658,-4034,-1288
15713,1976,-12476,416,-8646,2883,7620
15736,-504,-10516,680,3824,-11062,-5382
15757,7472,-8384,1624,3016,-6110,-4605
15780,-3776,-11828,24,6347,-5170,-1602
15802,-4608,-9548,-2964,17420,-15217,2515
15824,3112,-2592,-816,16763,-17875,5896
15845,-408,-12400,-1628,10107,-11246,2514
15867,-9332,-11944,-7392,29272,-26143,-2604
15889,10824,12052,-10480,32767,-32768,-12548
15912,32767,17748,-12908,9072,-32768,4578
15933,32767,-14936,-11716,7108,-6109,32767
15956,13648,732,-9004,32767,14179,26767
15977,12768,26344,-12860,27085,-32768,-6970
16000,32767,23056,-27536,5337,-32768,301
16021,32767,1880,-28372,-5078,12049,23222
16043,30156,-144,-20880,10973,32767,32767
16065,-2108,3236,-6724,-5797,21869,7031
16087,15260,-13812,-8628,-3278,-3921,-14244
16109,26796,-3464,-11128,12308,1150,-7049
16132,25228,8824,-9552,2866,9480,2725
16153,17544,1440,-7076,-6809,15797,5003
16175,9096,-2076,-4872,-3233,8009,-784
16197,15332,-416,-4576,-1566,573,-2087
16219,15968,-964,-5752,-3794,4894,1747
16241,13848,-1708,-6296,-3095,1978,-4100
16263,17676,1800,-6808,-824,1203,-6642
16285,20092,7308,-7632,-4073,3303,-5171
16307,18732,7200,-9348,-8389,7271,-2503
16330,16356,10844,-9768,-9677,8460,149
16352,17796,8628,-11324,-15350,8380,-1858
16373,16620,7448,-12872,-14474,13174,-5367
16395,12692,10276,-11096,-15166,10153,-12400
16417,13244,18888,-10736,-15632,9185,-9141
16439,13444,22136,-11492,-27580,6836,-6463
16461,15008,10288,-13460,-32768,10000,1901
16483,9008,7356,-11928,-32768,13406,11682
16506,-1464,3276,-7952,-32768,10518,6032
16528,1628,-18512,-12344,-32768,-6075,464
16549,18784,-32768,-13892,-28878,-8295,-1987
16571,-1216,-21204,-1628,-5727,-4923,2319
16594,15452,-19928,-7992,-21169,-32768,-7952
16616,32767,-32768,-13120,-14467,-17167,-6547
16637,32052,-17936,-2040,8385,4175,4000
16660,24180,-5036,1476,-15052,5689,9977
16681,12196,-28484,-380,-11526,10304,13739
16704,11972,-18736,-464,7965,-8583,-7576
16726,27816,-6036,-1352,6640,-2683,-4179
16747,19960,-6392,-2996,-2126,3572,1994
16770,21880,-15000,-5648,5612,-366,-1438
16791,25292,-6388,-4364,12613,1346,-2050
16813,25796,-3812,-3372,6676,7457,2825
16835,25072,-7308,-4116,6900,6401,-5904
16857,31788,-6012,-3092,3470,3395,-8410
16880,32767,-8720,-5464,9372,13869,2727
16901,28584,-2352,-1760,10422,18438,9203
16923,25712,-6320,-516,7032,14171,9831
16946,27580,-9832,-1120,9845,6877,8761
16967,32767,-14024,-6448,9440,8301,7546
16990,32767,-12884,-8820,18773,20013,9559
17011,21704,-3500,-6684,14430,15587,3787
17033,21396,-8032,-6772,9264,14288,1386
17055,15272,-8240,-6540,14037,15250,609
17077,15904,-1176,-7572,19940,10291,-6185
17099,18696,9008,-5280,17821,18801,-501
17122,9088,6500,-2020,9790,26163,9818
17143,-3260,4964,2108,14919,22590,8948
17165,-4736,12980,2904,17958,8622,453
17188,592,17956,4064,3193,5734,-3941
17209,1312,4740,3572,-1327,7368,-5878
17231,-1012,7388,5464,5112,4856,-4595
17253,-920,9124,4268,-172,1715,-729
17275,4276,2636,2960,-179,-2359,1003
17297,13532,2156,4452,228,2582,2672
17319,6284,868,4896,333,12056,5861
17341,-852,2648,6148,1919,4804,-2533
17363,8440,3808,7572,924,-4202,-3430
17385,14588,3964,7184,-1173,1281,3354
17407,9484,3292,6184,-6386,2084,1572
17429,12240,-5548,5768,-11510,-1920,-5260
17452,19732,-14620,4108,-494,-1368,-2816
17473,15920,-2180,6352,10529,7762,8175
17495,5664,4972,9588,-99,5393,7803
17517,5372,-5236,9536,-3184,-743,3202
17539,8340,-4480,8436,3461,-8100,-1496
17562,18780,4596,7716,92,-7836,-1834
17583,20164,-3708,6800,-11707,3771,2849
17606,9816,-11200,7160,-3320,5040,2385
17627,9076,-5092,7868,2324,-2995,-500
17650,12916,-2500,6808,-1383,-1194,3612
17671,8820,-5964,6764,-2949,-1339,3693
17694,8568,-6836,6940,79,-3817,967
17716,9500,-4428,5212,1455,-4858,193
17737,10856,-3888,4140,-845,-3709,605
17759,9092,-7132,6032,-1935,-1263,2902
17781,3672,-8428,7344,2679,-4421,3099
17803,6604,-2164,6056,7801,-10320,619
17826,11136,2132,4292,295,-7631,1920
17847,10136,-8944,3600,-2533,-4095,5093
17869,5268,-11120,4040,6614,-5713,4625
17892,5656,1168,5016,10594,-11570,3111
17913,7184,3952,3672,-1106,-7081,3135
17935,5160,-12312,508,-7181,-11072,783
17957,5964,-19180,784,8044,-11598,-1608
17980,6556,-2516,832,14244,-22757,-6068
18001,19624,-2348,-1488,5408,-19838,-573
18023,18540,-5680,-3868,5895,-14720,-82
18046,20980,-6636,-4608,5145,-15744,684
18067,22708,-12216,-3944,10103,-11171,13201
18090,22556,-7004,-6340,18696,-9859,15565
18112,15524,5452,-1720,5716,-6655,-7712
18133,28260,-5300,-8004,-3123,-20831,-25595
18156,32767,-7124,-11456,6539,-10994,-10661
18177,32767,-7028,-9384,12119,7953,19657
18199,25140,2304,-6416,17418,3952,10097
18221,25420,6264,-4192,-2188,2449,-1523
18243,26268,-9688,-7360,-3946,565,-8197
18265,29476,-3748,-7308,8571,1220,-4028
18287,25320,4608,-3540,2470,10174,4908
18309,13620,-2480,-1512,-1469,8641,4030
18331,13016,-3976,-1688,3328,-1661,-4391
18353,22668,680,-4344,3857,-3624,-7199
18376,24928,2724,-2728,-6824,8509,1434
18397,11460,-11208,-2032,-6054,13599,4199
18419,6380,-4592,544,6435,2546,-2729
18441,12980,3900,1056,-854,-1710,-2810
18463,14692,-4252,-1164,-6862,-163,268
18486,18324,-10288,-2412,-1911,30,-3264
18508,14604,-4972,-512,3209,4356,140
18528,11556,-52,292,142,210,-454
18551,16236,-1732,-812,-1481,-2031,394
18574,18520,-2092,-2512,-3399,-1399,-1759
18596,22412,-6148,-3476,-3132,4427,-915
18617,13844,-3076,-2180,1903,6282,788
18640,15628,2660,-1960,211,6,-1041
18661,18576,2052,-2680,-4103,2854,2608
18683,18732,180,-3572,-4863,3557,226
18705,17472,1052,-3012,-5716,5335,459
18727,15892,256,-2584,-7641,4675,1378
18749,16672,-1016,-2364,-6889,4237,2789
18771,15176,-44,-2284,-7934,4590,1888
18793,17128,-1068,-2976,-9782,2731,-1244
18816,21256,-4328,-3188,-9189,5296,192
18837,15728,-2180,-1432,-5597,8823,4397
18859,11184,3760,-352,-6117,4808,1530
18881,15432,3720,-1404,-14051,553,-2863
18903,18128,-4960,-3044,-16167,3176,-77
18926,16020,-7300,-3124,-8165,4337,1238
18947,13600,1276,-1704,-3358,2540,-240
18969,19904,3940,-2524,-15672,-112,-3547
18991,21496,-9068,-3724,-17902,9643,4567
19014,12768,-7360,-3148,-5298,8152,3690
19035,15576,3780,-1232,-8062,4565,2159
19057,17748,-3228,-2220,-17310,8127,4897
19079,12964,-8464,-1664,-9423,8932,7433
19101,12712,-96,-56,-5992,5469,6093
19123,12172,3112,-420,-16712,4238,6387
19145,16536,-14564,-3176,-23480,4778,5844
19167,12264,-20284,-1908,-10050,7054,5045
19189,12112,-10508,-380,-1157,377,1074
19212,19248,-1600,-268,-4131,1643,5628
19233,18900,-1912,-608,-12087,8873,10741
19255,10864,-11448,-1448,-16111,11119,10715
19277,8660,-16536,-1288,-5605,3400,4975
19299,16208,-6260,76,-38,1011,2095
19322,16372,-4508,696,-12796,7766,6350
19343,7444,-15724,-404,-10447,6205,3429
19365,12100,-12124,-280,-1363,-2478,-736
19387,20708,-7372,-1116,-4380,2349,6394
19408,11204,-10192,120,-9619,11963,10260
19431,3028,-14864,-880,-7170,2320,-754
19453,16404,-17420,-2632,-4140,-6851,-2765
19476,27076,-18500,-3404,3610,7028,4999
19497,8144,-6988,1872,-1097,17306,7641
19520,1180,-19340,784,-8406,932,-3405
19541,14280,-20672,-1768,9570,-6927,-8885
19564,20700,-1852,76,8455,-689,-1546
19586,15520,-5280,-428,-4875,6430,5517
19607,9292,-16424,-1260,1026,3217,-1020
19630,13572,-7220,276,7344,-4634,-7393
19652,19036,-4752,212,-244,1891,1111
19673,12276,-13244,-860,-765,2832,-16
19693,14220,-13020,-456,5755,-1904,-7377
19717,19812,-6332,616,7243,-731,-5730
19740,18436,-6396,1192,-270,4784,2090
19762,11700,-14264,1028,1065,3478,531
19783,14384,-12036,840,6781,-2793,-6435
19806,19204,-9296,1160,4962,-128,-4740
19827,18272,-13000,1052,4457,1941,-1639
19849,16516,-11828,1300,8715,1608,-1620
19872,16460,-9032,1624,7890,782,-3175
19893,16384,-8500,2336,7173,1051,-3526
19915,16364,-9956,2244,5102,-347,-2815
19937,16584,-10736,1296,7225,-102,-2298
19959,20660,-12656,232,6499,32,-5250
19981,17244,-12660,636,11250,3787,-2678
20003,18780,-6012,1800,11448,1171,-4989
20025,19912,-7844,1484,6335,5676,-439
20048,14684,-10192,1300,9305,5465,-1649
20069,16332,-5780,2696,11611,2018,-4293
20091,16592,-3584,3428,7411,4116,725
20113,12772,-5060,2396,5902,2081,-684
20135,17700,-9376,1172,3075,-2227,-6373
20157,23816,-11988,-156,9681,1362,-5893
20180,21820,-5032,1344,12729,6344,-1122
20202,15880,-2008,2076,7919,8306,-976
20224,14312,-5784,2676,7293,4311,-4961
20246,15904,-1476,3804,10289,1277,-4934
20267,17860,2804,3716,4838,3167,-379
20289,14564,-5452,1332,-2583,4562,2109
20311,16360,-15016,-48,7136,2638,-4471
20333,17608,-2416,1548,16631,3816,-8122
20356,17120,3728,3060,8522,8842,-3027
20377,12092,-480,1992,9350,7293,158
20400,16624,5168,2784,13272,3730,-2455
20421,16712,9088,4720,6334,9898,3287
20443,8964,4252,3968,1180,10781,3825
20465,12208,1476,5612,4198,3665,29
20487,12744,4592,6720,2697,8174,6723
20509,6060,3712,7000,1051,7004,5222
20531,6724,5852,5892,-1788,-111,-1612
20553,12896,1220,5256,-6815,-1157,-1477
20576,14760,-5244,4740,-2864,3826,3433
20598,9496,-1388,5344,4520,5161,5819
20620,7124,3736,5156,3149,2148,4536
20641,8612,1100,5212,-1631,534,3622
20664,9084,-3696,4656,-323,-405,-255
20685,12976,96,4004,2144,-694,-3275
20707,12520,1036,3896,-3546,2461,-537
20729,10124,-4848,4096,-3433,2884,2090
20751,8124,-5252,5548,1156,-9,3004
20774,9492,-1988,5900,1085,-2327,173
20795,10752,-1796,5636,-2318,-883,-1225
20817,9144,-5176,5284,-3963,-80,-3466
20839,5668,-8228,4132,-1092,-2055,424
20860,6476,-9016,2008,4293,-4862,5731
20884,6860,-1316,3556,4881,-3674,2652
20905,4468,-4660,5372,-4134,-1430,-1506
20928,-420,-11280,4628,1687,-4004,8
20950,280,-7504,3060,7850,-9762,4367
20971,-96,-5956,2608,8788,-9569,14588
20993,-4812,-4672,2572,9357,-11804,17914
21015,-8472,-2024,-1044,8720,-22518,15077
21038,2444,-3556,-3564,2976,-32768,14705
21059,17736,-9180,-80,1216,-27585,12081
21082,12364,-9640,-808,6525,-22206,15283
21103,19052,-1572,-3908,6627,-24022,4333
21125,25576,-2620,-2972,-7607,-17593,385
21147,32767,-24420,-6216,-12773,-13564,3564
21170,25008,-23220,-9956,11280,-1629,-553
21192,30564,-2236,-14952,10045,-21609,-15379
21213,32767,-2464,-19080,-1639,-14094,-5894
21236,32767,-18444,-17888,-80,19758,20753
21257,11612,-8960,-9704,17937,22406,16146
21279,5380,6220,-5840,5170,-1996,-6547
21302,27076,-4664,-11500,-5213,-11378,-13146
21324,32767,-7792,-11760,-2422,6574,-432
21345,16324,-4028,-8804,1184,13165,-2902
21368,14216,3012,-6404,-4610,63,-12173
21389,25312,-4160,-6316,-11972,2265,-2520
21411,18552,-11292,-4236,-6508,9125,3223
21433,14140,-11072,-2588,-1735,7550,2195
21455,9336,-9424,-1468,194,5508,466
21477,10616,-2000,-1596,527,-1788,-8226
21500,20364,-1916,-3400,-10754,-1897,-7926
21522,19012,-13548,-5216,-9907,7261,715
21544,11208,-10548,-4368,2881,3259,-1877
21564,15760,1492,-3924,2868,615,-5096
21587,18288,3088,-5424,-4468,1648,-5328
21609,21700,2712,-5924,-7914,6907,-3889
21631,15052,-788,-5640,-9796,10606,-1143
21653,12920,2600,-4332,-4838,6286,-4733
21675,15708,6844,-4504,-9128,5412,-4371
21697,18756,3108,-6508,-12561,6823,-4787
21719,18964,2392,-5840,-13225,8191,-364
21742,18072,876,-5236,-12805,11031,7053
21763,14452,1952,-5340,-12685,9224,4639
21785,16784,472,-6004,-14127,11330,-1760
21807,11700,-1396,-4996,-17880,9617,-6232
21830,13380,-3224,-4496,-13042,6256,-10403
21852,14080,-128,-4052,-12939,5574,-6628
21873,16528,-5636,-5164,-11413,5850,850
21896,13828,224,-3216,-4196,9300,6302
21917,6288,11900,-720,-17348,10128,3680
21939,-1060,-12016,-2620,-32768,2165,-4086
21962,13372,-32768,-5432,-27869,-18693,-7084
21983,32767,-32768,-7380,-4703,-7352,12472
22005,25996,-21140,-1900,3740,13413,19706
22028,12668,-14740,2628,-7955,10266,7664
22049,13012,-18852,1676,-3346,892,177
22071,17572,-8468,380,-28,-643,1630
22093,19216,-18736,-2032,-5697,4636,6476
22116,17684,-17492,-2112,10745,2695,-7511
22137,19812,-2056,1660,6529,5240,-6557
22160,16352,-12592,772,-270,7533,-1271
22181,13736,-13276,-472,9372,-739,-4616
22203,25152,-12800,-1976,7157,-987,-6830
22226,23300,-12016,-1136,10837,5906,-6610
22247,21572,-7584,68,11974,3077,-9965
22269,24716,-4184,-128,11930,3477,-5860
22290,23416,-3836,728,7827,7559,-116
22313,16148,-12872,2572,5847,7102,-173
22336,16076,-12492,2636,16640,71,-7170
22358,22328,-6352,2096,15543,-102,-6021
22380,18756,-8444,3092,12812,4930,-3769
22401,10884,-10412,2692,12394,1258,-12133
22423,19400,-10516,-4224,18933,-9388,-27799
22445,32767,1992,-8256,19553,-6029,-28145
22467,32767,3644,-8800,11119,14156,-11489
22489,20316,-2880,-9176,14553,27711,-275
22511,10480,5028,-8408,21201,19935,-1214
22533,15928,10440,-8588,17529,17597,4461
22556,13608,10032,-8264,14977,27245,18601
22578,-44,11732,-4504,17083,31074,18348
22600,-12196,18252,1520,10367,16017,5205
22622,-4456,14548,2608,2313,8939,1876
22643,-2008,10540,-3236,5522,-5163,-6973
22665,18884,19980,8060,-6332,449,-1114
22687,13792,-14792,-6124,-11012,10851,32767
22709,4556,7812,-696,32767,9162,25556
22731,5312,32767,5760,-5036,12340,27826
22753,-6624,-3044,4824,-20934,5612,15754
22776,2084,-8488,3116,5385,-10450,678
22797,17892,9476,3424,1509,-8806,2593
22819,14732,-2500,3764,-10898,7773,12170
22841,2368,-5752,8052,-1265,243,3453
22864,7832,-1088,9240,-1434,-5610,-409
22885,7936,-7908,7468,-7009,-4959,3020
22907,12628,-17580,2244,-2063,-9777,993
22929,14728,-10296,5904,1947,828,2080
22952,2532,-12292,6536,-7572,3278,-2099
22974,-188,-18756,3432,426,-7158,-10204
22995,7480,-7932,1896,14734,-16592,-6865
23018,13580,7732,3680,11599,-10506,2189
23039,2036,7864,4464,-4629,63,10299
23062,-9228,-1184,2096,-5634,-13757,-286
23083,-696,1704,956,-530,-27447,-7989
23105,8316,5580,-1384,-6952,-30692,-13735
23128,20848,-2076,-4164,-7834,-29089,-8534
23149,30692,-1680,-6424,1328,-15132,-8318
23172,15308,4396,-3340,-6969,-5382,-933
23193,24552,-10696,-5252,2954,-17056,602
23215,32644,6436,-6560,16855,-5552,14298
23237,21796,12812,-8112,-5965,-1511,16187
23259,32767,-10112,-12956,-7247,-11520,8429
23282,32767,-9544,-14436,5904,-1654,12232
23303,32767,-548,-10392,2620,13465,15084
23325,19732,-10500,-5704,-5145,16012,15397
23347,11724,-15224,-3356,6840,2112,6456
23369,21660,-5772,-4764,10427,-6580,-116
23391,25932,7344,-3776,-947,1440,6870
23413,16832,-13172,-3752,-15518,10291,12452
23435,4828,-14372,-3688,8117,-245,8292
23457,13944,5172,-2608,6615,-9571,1255
23480,16920,820,-4936,-3191,-5031,-1697
23501,17692,2652,-7676,-783,-8706,-12164
23523,23008,2908,-11416,-8551,-6599,-8723
23545,22220,-1508,-10364,-4964,495,-1244
23567,21120,6396,-11696,-2731,-4058,-9074
23590,31732,13232,-12904,-17009,916,-6609
23612,26116,-4472,-14852,-23206,17555,8048
23633,14832,-2532,-11384,-8553,12922,2520
23656,16644,9524,-9744,-14731,14241,548
23678,13460,212,-10124,-24391,14152,-1134
23699,17604,-3776,-10272,-15666,12761,-5907
23721,20892,16,-9808,-17065,18868,6165
23743,14152,4408,-8984,-13820,28418,14370
23765,-644,236,-6784,-29256,27806,12504
23787,-6112,-27104,-5060,-32768,11356,3745
23809,6328,-32768,-2136,-7846,-3112,-8498
23831,15384,-5372,1492,-408,-4976,-1239
23853,21516,-1192,-1412,-19493,2661,13673
23876,12484,-29040,-7176,-32768,9073,14147
23897,9068,-32768,-3404,-2639,500,-4701
23919,21700,-10532,1744,13994,-4311,-8773
23941,26112,-8636,352,-13084,12749,15782
23962,5164,-25784,420,-4881,16645,15284
23985,3328,-20244,2192,6047,-1832,-5031
24007,14940,-16044,976,10738,-3657,-10349
24029,19036,-8488,872,9027,-5265,-10993
24051,24604,-10780,136,4901,-672,-5144
24073,18368,-13312,480,5884,2081,1811
24096,18864,-16124,216,8294,-3779,-4297
24117,21980,-13248,-1052,11719,-4396,-8224
24139,28872,-10936,-2720,11140,-5075,-11463
24161,32456,-7544,-2136,8664,3928,-3345
24183,22228,-13576,-1880,4510,8961,4931
24205,17064,-20420,-3160,8071,-2148,-8128
24227,28228,-15204,-5308,17202,-4985,-18743
24250,32767,-3356,-7076,11885,2910,-14469
24271,28304,-9224,-9648,3738,14512,-3122
24294,16192,-11752,-9292,11717,15005,-2072
24315,16976,-6340,-7556,20316,10293,-5189
24337,18168,7088,-7616,28383,16441,-2757
24359,10196,21656,-3808,17053,20352,5764
24381,4276,8328,-516,-2382,17035,9641
24403,-2524,-4440,1392,14453,11502,10603
24426,-856,16824,1336,26966,-1377,-72
24447,8612,27820,2312,1412,-19,5064
24470,6916,5384,2236,-12265,8288,5992
24491,940,-2068,2680,-44,4588,-2390
24513,4952,4392,1668,3735,-490,-4507
24535,6484,5884,1352,-1457,2464,2049
24558,8772,-3496,1692,-3211,2692,165
24579,7456,972,1920,5858,3299,-2933
24601,9492,7788,2672,-1895,4399,-3432
24624,5376,-1356,2076,-6351,5463,2678
24645,4248,-6032,3040,1479,1138,5256
24667,3832,-280,4960,5449,-1652,5094
24690,2892,1972,5292,1865,-3962,3260
24711,2972,1496,4428,774,-7028,890
24734,5860,4540,3996,-5240,-10572,-1866
24755,15028,-8948,612,-13565,-7138,-1656
24777,7964,-15288,-820,1242,150,3784
24799,5220,-4284,1056,6711,-7778,7852
24821,8244,-8072,1876,4687,-3856,24590
24843,-2948,-448,4932,9410,-4390,8589
24865,-4568,1536,2844,-8697,-13151,-9209
24887,8768,-19960,-2444,-4770,-15589,-7872
24909,40,-16588,-1824,12407,-13443,10427
24931,4224,-6128,-3896,16096,-30506,2190
24953,24368,1816,-6412,10040,-29366,-2442
24975,29892,580,-6452,-3476,-11484,-3869
24997,18708,-13856,-7644,-2335,-7743,-3992
25020,20920,-4724,-10172,14340,-20946,-6561
25041,32767,3740,-15312,9799,-21158,3048
25063,32767,1520,-17044,4291,-11194,16169
25085,32767,-4292,-15292,4141,5212,28221
25107,25216,-1908,-13720,3681,10738,21415
25129,20536,-7200,-12976,-9574,-198,5964
25151,32767,-25304,-17564,-759,-1387,5351
25173,32767,-5420,-15392,14845,3940,7265
25195,32116,-1200,-12384,-6141,17089,16426
25217,17224,-18124,-11416,-5088,15734,8575
25239,26152,-13236,-11608,6673,7122,-8293
25261,32767,-2488,-11788,-1160,15739,-8546
25283,28540,-8832,-11568,-11045,24000,-4337
25306,22444,-15232,-8528,-3597,24947,-4138
25327,17808,-8812,-4036,1994,23985,-4178
25349,15488,-3640,-1752,-1168,20438,-6766
25371,15472,-5316,460,-5076,19290,-4798
25393,11972,-3580,2064,-623,18479,869
25415,1176,6932,6616,-3373,15299,422
25437,6736,10696,3428,-10629,-3552,-10982
25458,21736,9628,876,-25304,3242,181
25481,7648,-3268,-284,-25102,14045,2481
25503,-1172,7980,-340,-22854,-3734,-15717
25526,20976,4584,-6416,-32768,-10818,-18677
25548,27932,-11668,-9068,-32768,8061,-4970
25570,16896,-13424,-7580,-12380,14140,2976
25591,15160,8016,-5368,-11357,17164,5225
25613,8304,-5132,-10056,-32768,25628,4860
25635,800,-32768,-13176,-29468,19156,6954
25658,412,-32768,-5532,6897,15948,12256
25680,-2380,-21128,2576,13851,7139,14991
25701,5612,-24312,-124,8114,2868,12391
25723,1904,-18504,3524,15791,7618,2669
25744,1560,844,7228,11668,-1636,-10933
25767,12708,-1324,6144,-7826,-585,-548
25789,6300,-13176,4744,-3396,285,6212
25811,16052,-16224,2636,1495,-9306,-3301
25833,25492,-12184,1304,9285,-3479,-6240
25855,27208,-3804,3220,3876,437,-2158
25877,28676,-17076,3460,-1488,9248,17484
25900,11008,-20040,6772,9026,17149,13570
25921,-5324,-20104,9116,-1109,1287,-6645
25943,14632,-32768,1652,10972,-17310,-21562
25965,27304,-15940,1856,22805,-6084,-12649
25987,17980,-14836,1756,5449,3901,-4832
26009,11000,-26548,-2220,16461,-1100,-16642
26031,21824,-9268,-6308,31666,-10341,-20668
26054,30356,5608,-4960,25380,5126,-5798
26075,15288,6868,-3424,23874,18841,5732
26097,-2624,19512,3116,23800,11743,524
26119,-636,21828,3456,4580,-7963,-8950
26142,14476,7952,800,216,-7778,-2628
26163,15000,2988,532,3870,-476,2319
26185,11016,-484,1136,7031,4473,3360
26208,7704,1856,1376,10795,1003,-2682
26230,12136,4368,1348,12145,1532,-1944
26251,11272,10024,2444,8304,3383,389
26273,8156,7948,3124,99,4435,1180
26295,7156,3376,3628,-1280,725,-3992
26317,8792,2380,4296,-1655,-536,-1994
26338,7428,64,4800,-211,-1057,4833
26361,5860,872,4392,2601,-3000,8449
26383,1884,3976,4320,-843,-2392,5693
26405,-2412,524,1892,-8656,-7080,-4754
26427,1704,-8496,-1208,-7395,-15130,-7691
26449,8812,-10712,-2640,1947,-18865,-2806
26471,15956,-5472,-536,9450,-5722,-2195
26492,-960,76,628,4979,2164,-158
26516,-3724,-3856,-764,5721,-10981,-4534
26537,11600,-8596,-848,10304,-13541,-1365
26559,7928,-8996,676,17361,-2277,7826
26580,2588,1732,656,22863,-16355,757
26603,22728,12288,-532,8986,-22660,1751
26625,28612,-9144,-5040,-9854,-9071,7444
26647,27828,-18424,-9676,13146,-16092,-1162
26669,32767,6864,-12048,16159,-14090,338
26691,32767,1924,-15200,2104,-5453,6250
26713,32767,3716,-13424,11076,4644,13579
26735,32767,10064,-8856,1838,20037,30311
26758,17436,-3728,-5324,-7395,17827,20391
26780,13756,-10504,-4492,-2145,2174,-2903
26801,24744,-12056,-6604,1072,-4622,-7097
26823,27928,-10128,-7784,10259,-845,-901
26845,28816,8864,-5732,11245,-299,-1502
26867,30068,5704,-5040,-9836,10292,4873
26890,17724,-10764,-4388,-6343,14867,8111
26911,13768,-6572,-1572,4080,7488,3372
26933,15860,36,-464,1696,7747,2943
26955,11964,-688,-872,-2540,7177,1618
26977,15284,-3580,-2676,-4397,4579,-4902
26999,15116,-4060,-2060,-1532,8772,-2859
27022,10896,336,-1656,-321,7486,-3798
27043,11292,3936,-2476,-1266,2914,-8461
27065,17860,9576,-3440,-5700,442,-12605
27087,18328,9068,-4816,-13669,4844,-8365
27109,17424,4052,-6548,-13104,4775,-9765
27131,15700,8816,-6200,-12080,5615,-9120
27153,12104,13376,-5592,-18763,2932,-9854
27175,14520,13748,-7024,-22163,-226,-13747
27197,15868,14432,-10344,-30735,-2154,-8086
27219,28832,436,-13524,-30709,1223,6204
27241,31988,5780,-13756,-21464,18134,30426
27263,10788,16784,-11664,-32768,32767,32767
27285,-31432,-4808,-10204,-32768,32767,21128
27308,-15012,-32768,-24848,-32768,-24874,-8697
27329,32767,-32768,-18088,32767,-21065,-26398
27352,26204,8628,3048,29407,21288,15836
27373,64,-5084,3932,-32768,12046,12401
27395,7012,-32768,-528,-7847,-1575,-2644
27417,10988,-7988,3276,20806,-9202,-7210
27439,23840,2396,2524,-8473,-5083,3311
27461,16012,-18508,-552,-8577,8756,10705
27483,5312,-15576,2300,1747,-362,-2308
27505,11976,-11316,2024,1004,-7417,-7034
27528,19996,-17564,76,-535,-5506,-3918
27549,17864,-20948,-840,7344,-1624,-3683
27572,19384,-13676,-920,12004,-4988,-13548
27593,24912,-9024,-608,9549,-2997,-14197
27616,27004,-9260,-952,8255,-2196,-11940
27637,31712,-9044,-1856,9829,1721,-7175
27659,29668,-9844,-2360,9406,7926,-4138
27681,24756,-10628,-1532,10617,7983,-4707
27703,24452,-11988,-104,9844,10422,-4485
27725,15748,-12080,76,12043,8869,-7010
27747,21620,-12980,-2764,10658,-929,-14402
27769,28800,-16108,-5556,18205,9211,-5105
27791,19504,-7248,-5156,22476,11131,-4623
27813,17188,-3688,-5792,17957,10773,-3816
27835,14360,-5484,-7256,20244,10312,-914
27857,16368,2532,-7272,24630,9188,2541
27879,11992,9128,-5500,20380,18439,13644
27901,-468,8924,-2280,14976,14813,12531
27923,1008,8532,-1236,17641,2591,3510
27945,5604,17536,200,15715,1748,2964
27967,5496,17448,488,2722,392,7292
27988,8728,6428,872,1252,-450,8010
28011,5152,9396,3500,1253,1984,14357
28032,11168,2100,2144,1039,-69,-380
28056,9936,4904,3536,-961,5119,794
28077,9144,-11820,100,-199,-542,26572
28099,15928,-2272,308,29232,-419,30619
28121,8852,26444,5904,12439,11451,19144
28143,-508,6668,4396,-25014,4095,8473
28165,11036,-22288,1136,-6277,-2739,-566
28187,9352,-2632,4208,11474,1993,1661
28209,9984,696,4540,-6752,2344,1806
28231,5112,-14120,2372,-2351,4051,5174
28252,3544,-2984,5772,55,14,-4607
28275,3272,-6712,5632,-9214,2725,-5516
28297,-1992,-13604,2844,-3270,-2218,-1591
28319,2656,-10936,2492,4543,-3077,-522
28341,-4808,-4924,4972,1521,501,-1863
28363,-11140,-7840,4120,1127,-10377,-12127
28386,1076,-1436,360,9372,-26535,-19636
28408,21144,5792,-896,-725,-22992,-16717
28430,20892,-7960,-1020,-11825,-8921,-8149
28451,14860,-10656,-1432,9840,-12549,-10493
28473,18904,15508,1324,6851,-17014,-18274
28496,28568,8336,-5336,-11647,-22187,-16515
28517,32767,-9052,-12888,1120,-19217,-3800
28539,32767,4968,-10548,19911,8215,18345
28562,30320,15904,-5464,-2814,2983,2935
28583,32767,-5172,-7980,-8531,1890,-4647
28605,30564,-2868,-5492,4548,6604,238
28627,31404,16,-4748,-136,5739,2822
28649,23056,-5632,-2472,539,15346,9325
28671,12980,-1012,-424,6093,8614,-763
28693,15808,6876,172,-3590,2298,-6513
28715,14652,-788,-1728,-5811,3822,-4234
28737,10564,6228,-2780,215,-3509,-5715
28759,19172,12304,-5320,113,-7002,-6452
28781,23952,21748,-8012,-4285,-197,-1911
28803,20776,20540,-8228,-18994,8125,2288
28826,11908,11768,-7584,-21629,10676,4275
28847,9392,10872,-6392,-20059,4498,1772
28870,12644,11660,-7800,-25343,2493,1049
28891,15160,2024,-9380,-28290,2940,4559
28913,20492,-160,-8720,-23018,4544,9117
28935,16192,2272,-7808,-23190,18304,17503
28957,-2144,632,-3264,-32625,18385,11592
28979,5900,-30028,-7276,-32768,-8019,1922
29001,32660,-32768,-11368,-14172,-2051,4603
29023,13316,-17436,428,12640,20835,8279
29045,-4012,8,5860,-17511,3639,1900
29067,15972,-29220,-1576,-20841,-7131,2572
29089,18944,-27288,-1004,4484,3197,8947
29111,13740,-8848,2784,2083,3221,5781
29134,12908,-15440,1344,-6404,2097,3087
29155,15884,-16000,836,2307,-2513,-4049
29177,23080,-10624,1024,76,810,1335
29199,15636,-14496,1240,734,7449,7879
29221,13828,-14028,1072,5447,-2232,-3686
29243,21756,-8116,1824,5899,-1001,-5165
29265,21008,-8832,1928,3171,1952,-752
29287,18676,-11724,1648,4589,1578,1261
29309,17664,-12592,1756,6768,-756,-1687
29331,21588,-11124,1760,8416,-3066,-7638
29353,24344,-8904,1352,7325,246,-7389
29375,20152,-10196,1444,7556,1502,-6932
29398,19868,-9968,1012,8834,-3869,-6707
29419,20976,-6672,504,11614,-3742,-2537
29441,18628,-1928,-1128,8035,-5313,-2622
29463,26868,-7592,-4744,1366,-6382,-16781
29485,32656,-15992,-7232,7144,5855,-14268
29508,26704,-8380,-6336,20433,13719,-4927
29529,18644,3212,-3548,17496,19681,2147
29551,9860,-24,-1456,9255,16064,0
29573,10480,-3048,-892,14451,10178,-7121
29595,13836,5612,416,16301,9365,-7943
29617,12492,7052,836,9970,13001,1652
29639,7728,2892,1004,12868,10027,6125
29661,9780,13384,2260,17740,4864,1813
29683,10628,19316,3680,3165,8048,5508
29706,6608,6496,3252,-6478,7696,9069
29726,7320,-416,3064,2195,3522,5511
29749,8556,5276,4984,2291,3849,7004
29771,6980,-484,4052,-2438,5279,5994
29793,5024,-2028,4996,3828,2457,-818
29815,8744,192,4580,809,-2093,-6438
29837,11460,-724,4168,4320,1052,-2450
29859,9300,6296,5276,-2877,1076,575
29881,8440,-3720,3956,-9827,2301,1637
29903,7912,-11540,2316,-4287,-1144,-3589
29925,10292,-8556,3080,4652,954,-597
29947,5540,-1888,3892,4438,1141,6881
29970,4028,-3308,3452,2676,-486,9071
29991,-1000,-1552,3756,1227,259,2926
30013,-3036,-7196,2192,-5506,-4574,-4658
30035,100,-16764,-1008,4094,-10097,-239
30058,3528,-5780,-372,15386,-11986,695
30079,2156,3568,2336,4827,-6415,-4619
30101,-6468,-5260,676,-930,-11094,-4853
30123,1388,-7220,-1776,12782,-23719,-11034
30145,15724,6992,-3548,7514,-27090,-18498
30168,27436,-5836,-6044,-3878,-18157,-13910
30189,24460,-4792,-6700,18317,-11604,-6440
30210,23536,17736,-3264,13284,-12878,-1583
30233,32767,6356,-8328,4262,-17821,1970
30255,32767,6928,-12360,16683,-5467,14087
30277,32272,16224,-6600,3974,18752,26993
30300,15516,-2244,-4200,-9034,4146,10871
30321,30608,-7824,-6256,10173,-6122,1767
30343,32767,5568,-6028,4936,1123,10444
30366,25856,832,-5248,-3513,7897,9795
30387,23784,-4860,-4464,-2782,2130,-930
30409,26024,-2932,-4012,2533,2888,3325
30431,25276,-192,-4352,738,7663,6366
30453,16048,-2520,-2484,-1659,10810,5570
30475,14004,-4656,-1596,1482,1507,-2195
30497,19404,-1472,-1804,2236,211,-757
30519,18088,-2424,-3004,825,3811,791
30541,14448,276,-3432,4443,272,-8900
30564,20008,8732,-4528,977,-4200,-12927
30586,25264,6444,-6712,-4692,4247,-2259
30607,15560,7600,-6848,-851,9446,2329
30629,11688,18184,-5860,-2209,4350,-5822
30652,16376,18424,-7212,-17980,1760,-7006
30673,16876,8268,-8456,-19519,5689,-1309
30695,12624,10900,-7332,-16618,4306,-605
30717,14016,11128,-8276,-23438,4524,348
30739,14532,388,-10120,-25948,7513,4607
30761,12668,-512,-7368,-18678,7029,8243
30783,16660,3252,-6688,-25016,11580,15126
30805,3856,-2708,-5552,-32768,17508,21024
30827,-6168,-27096,-5240,-32768,6910,17132
30849,7896,-32768,-9740,-19317,-12815,-4847
30872,21228,-26300,-2848,30178,-10358,-9371
30893,27152,18956,2104,3043,-2672,2252
30915,27760,-5420,-4924,-31699,16454,23615
30937,8168,-32768,-4212,-9818,21113,23525
30960,3632,-14828,2888,6484,5256,2372
30981,13376,-12552,2744,-5633,-823,-27
31003,18944,-19972,-724,401,-2665,-888
31026,26596,-15508,-572,7202,1977,-773
31047,20292,-9128,1836,5023,7904,3142
31069,19120,-12516,1608,3501,2066,-3105
31091,25008,-12028,1872,7167,2806,-5974
31114,24132,-12792,3608,4802,7547,-2874
31135,16400,-16456,4980,7243,6993,-3265
31157,16252,-14020,5268,11666,-2998,-8964
31179,27960,-6480,5496,10776,-11475,-1177
31202,32767,-12208,1056,-6380,1035,-1543
31223,22112,-32768,-1360,-2012,20024,51
31245,17012,-32232,-2856,28620,-6488,-29137
31267,32767,-1108,-3168,26891,990,-20938
31289,25160,-7064,-3264,4575,28086,3216
31312,2768,-18176,-4324,15144,19347,70
31333,5084,-5700,-3740,26367,5214,-8140
31356,9272,6116,-2800,22290,10172,-2711
31377,-652,8592,-1216,18859,12821,4480
31400,-7060,16528,-700,16506,1664,2603
31422,360,19340,-680,4052,-10251,1366
31443,10500,10088,-1452,-1135,-4824,7845
31464,6068,7132,-360,3059,-261,9011
31487,6676,7492,-1036,3355,-2103,3405
31508,8056,8144,880,3231,1284,1182
31530,7680,8524,2144,2627,2295,-2014
31554,7100,13568,2496,-454,1346,-1488
31576,10132,5128,2112,-10172,1055,4958
31597,8976,-5084,2664,-28,3784,11385
31618,6604,2240,3344,6007,770,7178
31640,13260,3124,2996,793,1408,540
31663,11120,880,4340,-2093,5959,-1013
31685,8172,-3364,3796,-2303,3790,5646
31707,6780,-4532,4532,881,4275,4647
31729,2168,-7092,4560,-3534,3432,51
31751,1684,-12616,2916,1452,3371,-6809
31773,-2808,-8852,3084,3625,256,-3420
31795,-3888,-7092,2876,5637,-2305,2450
31817,-4900,-5488,1560,3801,-9953,-3283
31839,3276,-6756,780,6437,-13979,-6431
31861,228,-3988,2104,5418,-10415,843
31883,-2512,-6352,20,10252,-21028,-6001
31906,16076,2932,-6632,14667,-32768,-30844
31928,32767,3580,-9544,2533,-32768,-20238
31949,32767,-3908,-6928,12824,-971,15774
31971,18552,14112,-700,23225,9636,17925
31993,20172,17560,-4760,-445,-24652,-8938
32015,32767,3564,-14064,-986,-17562,-12281
32037,32767,9036,-8852,5046,17579,23280
32059,19028,7044,-5036,-8086,17508,30704
32082,11536,-14588,-3288,-9276,11352,20474
32103,5664,-13392,-4148,3174,-7541,-2467
32125,29424,-4776,-7836,7343,-14793,-11834
32147,31704,2620,-6788,4570,602,3305
32169,24772,1692,-4304,1438,3300,7327
32191,22152,-460,-2744,920,3091,7738
32213,16672,-2280,-1932,561,2635,4448
32236,18804,-1924,-3024,1191,-977,-2920
32257,20208,-1276,-3432,-1066,1607,-452
32279,18432,-3984,-3448,-523,4027,3629
32301,15536,-860,-2948,2080,2510,3125
32323,17412,1508,-3320,845,2871,-1431
32345,15320,5548,-3320,-2972,2713,-4104
32368,16800,3876,-5160,-8310,183,-3047
32389,18396,1340,-7528,-7057,1156,-442
32411,18692,6500,-8508,-2424,2506,-2523
32433,17528,17376,-8924,-4674,2366,-2712
32455,18504,22704,-10092,-15667,6503,-888
32477,13520,13896,-12016,-25519,8688,-1397
32500,12848,10484,-11156,-21280,3677,-4397
32521,16868,13856,-11532,-26225,4275,-1587
32543,14592,3372,-14768,-31999,8317,2102
32565,12524,-220,-12652,-24178,5627,4394
32587,15672,6480,-12232,-26000,4818,11976
32610,13436,1696,-12384,-32768,13871,23614
32631,2568,-23152,-15548,-32768,10617,15591
32653,3848,-32768,-9240,-18444,5806,-1833
32676,5536,-11336,12,-9975,-13725,-6559
32697,32767,-28384,-8188,-32768,-8221,10190
32719,17516,-32768,-5336,-10211,17670,20923
32741,2180,-18656,-208,-6736,-1678,626
32763,20828,-22252,-2360,-11326,-6143,-1580
32785,17720,-22664,-2244,-742,3212,652
32807,15596,-12068,-968,2283,-655,-4715
32829,18884,-17880,-1820,-1908,3344,-1517
32851,15104,-21804,-2860,8599,-609,-5668
32873,23920,-14244,-4544,13855,-3264,-11706
32895,25780,-10320,-5156,12385,5253,-9360
32917,19308,-9092,-3088,11944,6201,-7351
32939,20860,-9064,-2856,14744,1400,-7821
32962,28792,-6964,-4048,14665,1286,-10048
32983,29756,-6208,-3888,12954,10685,-7831
33006,23112,-6236,-2276,13246,10269,-6158
33027,24804,-8608,-780,13055,7847,-679
33049,22168,-12204,-1484,12866,8033,9820
33072,17036,-12636,-1412,14252,6276,5095
33093,14908,-10344,-3276,12359,-3470,-13889
33115,31248,-15060,-12880,17828,-4602,-19434
33137,32767,-4320,-15364,25944,14003,-6458
33159,18124,5380,-11648,20055,32457,3512
33181,380,1744,-9404,15313,26562,8871
33203,-300,2920,-7048,25118,10798,7642
33225,2380,19332,-4268,32767,8062,10554
33247,2252,31784,-956,14190,4247,10739
33269,1836,20072,1384,-8325,3727,3667
33291,92,4820,228,-3421,-3213,-7189
33313,12924,14540,-372,2683,-13938,-16282
33335,24924,14076,-532,-9591,4232,3156
33357,9992,-996,476,-10611,12432,3241
33379,5308,2236,1132,1077,1698,-4815
33402,16776,8928,1220,-5525,781,-7249
33423,13520,444,764,-11017,10114,3335
33445,7068,-3564,1856,-2880,5279,3339
33468,8404,4548,2656,-1313,1893,4046
33489,7648,2788,3128,-11146,3560,4006
33511,4340,-9140,1536,-10746,366,5050
33533,6652,-13456,1384,122,-4215,5773
33555,5196,-6216,1676,9179,-3378,2576
33577,5868,3812,1068,2975,-5848,-7490
33599,7196,-6668,-512,-11165,-1349,-1582
33621,948,-23152,-3120,-3287,-960,3125
33643,1020,-19344,-1960,17746,-5860,-6391
33666,-228,560,1636,14783,-3034,-14614
33687,-2668,-9528,-1824,6355,-7079,-14725
33709,3164,-14616,-6248,23654,-20389,-13422
33731,22992,5676,-6932,32767,-21721,-13025
33753,24812,22380,-516,15041,-4760,9343
33774,10760,5592,-916,5032,-8205,8020
33797,22076,5340,-7116,18671,-31106,-6122
33819,32767,19176,-14472,21795,-28077,-2542
33841,32767,27004,-9860,2894,14687,26291
33863,17808,4328,-4592,-18161,30408,32762
33885,7672,-14968,-3272,-1587,-4034,-1712
33907,32767,1596,-5152,12038,-15252,-9679
33929,32767,2292,-9156,1624,3865,5123
33951,25740,1180,-5792,2263,15795,10546
33973,15872,196,-2952,-1444,8541,3636
33995,19412,-3088,-2824,2170,4755,627
34017,16784,1636,-2012,2951,6061,1309
34039,13568,496,-3056,-756,2834,-1688
34061,18936,3008,-4248,2152,577,-4411
34083,18876,5832,-4204,-3601,4815,2226
34105,13968,900,-5628,-3900,6772,1728
34128,11604,3332,-6436,3502,2814,-6426
34149,14640,16880,-6064,1059,406,-10613
34171,17500,15912,-7712,-16054,4704,-4710
34193,12556,3392,-8944,-11235,8421,-2639
34215,8436,18928,-7524,-3163,536,-6919
34237,18056,27056,-9928,-21683,-1993,-5210
34260,22660,6720,-13168,-32553,9066,4474
34281,9440,5272,-8424,-19134,10317,8214
34303,13400,10988,-6928,-23919,4500,18640
34325,15172,1924,-9516,-29094,14251,32767
34348,4824,-18896,-8332,-32768,20126,22867
34369,-4600,-32768,-1996,-20026,9135,4154
34391,11492,-23968,2676,1094,-11469,-13495
34413,8460,-11356,5360,-16169,617,-5853
34435,1912,-18744,1504,-15547,-15771,-10633
34458,25776,-24920,-3928,-7451,-22794,2339
34479,32767,-16936,-4216,3322,-3779,8193
34501,25652,-9104,-1276,-9114,16120,16510
34523,9404,-20296,1060,-10859,13202,9118
34544,8212,-15588,3156,2295,173,-1715
34567,17184,-9700,-424,-1936,-7073,-2627
34590,27408,-15432,-4992,1669,-4389,-5330
34611,29340,12,-2060,1509,2507,-5624
34633,25596,-9256,356,-8288,14173,5332
34655,12344,-18612,196,2160,5052,1694
34677,28664,-16084,-1660,10768,-5501,-8232
34699,32767,-10444,-964,5944,5772,-1720
34721,27048,-17928,-672,6238,8976,502
34743,26528,-12976,-752,14264,2948,-1355
34766,32767,-14612,-2216,10138,7534,7008
34787,25388,-19236,-2304,17904,12035,7604
34809,22260,-6884,-936,16084,8453,896
34831,19564,-15724,-3744,8134,9998,2415
34853,17408,-18580,-7008,18423,5390,12
34875,20512,-9900,-7044,22410,11289,1987
34897,6096,-8912,-6700,19546,17875,7255
34919,-4352,-4532,-5040,22685,7850,-5643
34941,-628,2560,-2848,18624,-1814,-15340
34963,3308,4376,-3180,20891,-1932,-16373
34985,6536,17608,-2732,22937,-2908,-9770
35007,12304,19596,-644,7704,3883,2264
35029,2620,11296,1684,2229,11091,1109
35051,-748,12136,3412,1879,3675,-12804
35073,6136,11260,2596,-4395,-635,-13361
35095,7956,7948,3576,-5629,4620,3017
35117,7948,4328,4052,-3293,3260,-20
35139,7412,10912,3908,-2413,3051,-6427
35161,9868,5832,2104,-14068,979,-6533
35183,14660,-8868,1372,-6808,4681,1188
35205,6888,-2444,4160,8297,6995,6106
35227,4928,10448,6576,3382,4460,1324
35249,-368,6964,4952,-12936,5854,4012
35271,-3696,-14712,2664,-15324,2118,5701
35293,-7732,-17828,2416,3197,-3192,-1111
35315,-7020,-6356,336,6041,-13616,-10595
35337,3692,-7324,860,588,-16164,-6130
35359,-2004,-13496,2276,3353,-6708,5599
35381,-12164,-6224,-912,18452,-21736,-2832
35403,3976,11836,-4732,13403,-32768,-9683
35424,20020,1948,-5132,-5798,-31095,-3490
35447,22136,-16740,-9252,8693,-24570,17114
35469,17812,-1512,-11132,25121,-23197,5555
35491,32767,11992,-24468,17794,-32768,-13977
35513,32767,14580,-26028,8947,-20943,-842
35535,32767,13384,-15552,5244,32767,32767
35557,-4508,8832,-2156,-15312,13313,22999
35579,22792,-18044,-9384,-11669,-18370,-7216
35602,32767,-11908,-16476,2746,-10981,-4084
35623,32767,-4872,-14428,3369,13944,10632
35646,15192,-2060,-5528,-440,23773,13855
35667,7392,-6052,-2136,492,3346,-2672
35689,16472,-3272,-2316,4949,-2090,-6269
35711,19784,-2776,-4656,-526,-4126,-4280
35733,25928,-7484,-6416,3586,1541,-2759
35755,17436,-3184,-4132,1836,9586,2738
35777,11164,-7352,-3132,1137,6418,671
35799,10720,-4168,-2764,6535,1072,-2899
35821,21224,2080,-5240,3545,-3787,-8186
35843,27488,-1824,-5680,-6942,12118,3564
35865,10968,-10940,-3796,-989,17491,6358
35887,7636,-3720,-276,5380,4895,118
35909,16056,-2732,-1356,2188,3025,-725
35931,18460,-644,-1788,-360,5653,-737
35953,17156,-7384,-1296,-2145,11471,3822
35975,9124,-6516,704,3715,7799,1476
35998,10272,-1892,1500,4709,247,-2028
36019,15560,-284,-64,316,-3468,-4095
36042,21884,-5812,-2152,-1250,300,-1441
36063,19324,-8772,-1832,3722,4288,2284
36085,14944,-4368,-280,7214,4663,1448
36107,13704,-1428,-452,7690,912,-2489
36129,20268,10048,512,1306,-597,-2642
36151,18604,-3660,-740,-12924,10539,10957
36173,8448,-14912,-980,145,5569,5494
36195,14640,-2088,-460,10637,-2950,-4265
36217,20252,4972,-536,-551,3037,-1609
36239,15972,-1628,-1252,-3794,6410,654
36261,14000,1088,-1708,3490,1580,-2249
36283,20208,8772,-2932,603,-2762,-4261
36305,25432,4924,-4836,-6559,3397,358
36327,17220,-636,-4700,-4850,10474,5093
36349,12016,1492,-4404,2948,5207,-816
36371,16416,15600,-3472,1511,3503,-4719
36393,16792,17480,-4664,-15894,10269,2823
36415,5776,6576,-4372,-20672,13281,2408
36437,6836,1048,-5748,-22056,-346,-4748
36459,17244,-3480,-6628,-19181,521,-68
36481,16252,-668,-6012,-13336,7206,9950
36503,13544,6268,-3560,-13033,12162,13934
36525,5108,628,-336,-32768,13981,13256
36547,4920,-32768,-4680,-29981,4460,10992
36569,9216,-26504,-1452,11895,-2263,-3993
36591,22544,16848,2528,-1909,-3040,-1954
36613,25480,-25156,-5120,-32768,13081,27444
36635,14588,-32768,-10936,-19019,9977,8251
36657,16508,-25152,1252,32709,8086,-7943
36679,10400,3968,9352,-3623,12470,9422
36701,-2736,-28300,6048,-15178,2191,13573
36723,5912,-29100,-24,16338,-15800,-13668
36745,20176,-5900,-1996,17044,-17494,-10015
36767,26492,-1184,-2668,3633,-7306,-73
36789,20620,-8772,-2408,-2814,3750,9202
36810,9528,-11828,-880,2957,4730,10335
36833,7468,-4572,696,4028,-2189,2563
36855,12572,-5092,208,-3377,-3869,1503
36877,14036,-12404,-1120,-883,-635,671
36899,11852,-9592,-1280,5648,-1933,-2139
36921,16240,-5348,-2500,6708,-4068,-5181
36943,19284,-2820,-2312,2357,264,-1938
36965,15008,-6444,-1260,-1486,6368,3053
36987,6860,-6772,-108,1546,2286,362
37009,13376,-2184,-900,1420,-7510,-4855
37031,21396,-4136,-1948,-5038,-1966,43
37053,17912,-11892,-2844,-4599,4845,4580
37075,14108,-9564,-1804,3227,4876,3961
37097,11548,-3332,300,-119,4792,2217
37119,8436,-6452,480,-6657,1224,533
37141,12028,-13696,-1260,-5454,-3574,-717
37164,17304,-13944,-1960,-53,-4232,523
37185,18532,-11976,-1968,566,297,3453
37207,15348,-10196,-1980,-422,345,3696
37230,17636,-12352,-1580,-2071,-2084,-1030
37251,20612,-13240,-1756,-385,-519,428
37273,20424,-15004,-2772,-710,2811,678
37295,18980,-14508,-2924,3419,3318,-1725
37317,21952,-10284,-1524,3297,3506,-2083
37339,21308,-12300,-416,28,11234,2998
37361,12972,-15824,280,2398,13270,5394
37383,6772,-12776,2296,5467,7387,-933
37405,9648,-10892,2488,3638,-2761,-9501
37427,19556,-11972,908,3054,-4653,-7810
37449,21768,-13120,1120,4382,5370,-2787
37471,13168,-15548,1448,5375,7021,969
37493,11776,-13740,2752,12057,1966,-4459
37515,11408,-7036,4424,9629,-1116,-8018
37537,16036,-5836,2460,4387,-5801,-16306
37559,21856,-6696,1856,-1181,-810,-15045
37581,19616,-14736,1260,-827,6249,-11296
37603,13004,-15492,260,9977,4288,-7988
37625,13780,-7228,160,15482,-1292,-9847
37647,16592,-128,112,11868,-884,-10429
37669,19492,3188,-544,4475,1050,-13754
37691,18488,792,-1232,-3470,8689,-15540
37713,10632,-4824,-464,-4660,10035,-11023
37735,10588,-7668,-1244,2160,2598,-3604
37757,12076,-7332,-1036,7079,3468,6047
37779,11764,-8060,-3352,21773,733,10869
37801,14652,12204,-1808,32767,-441,8996
37823,16276,26592,3288,4040,6719,1542
37845,11296,4144,2540,-25985,14271,-1193
37867,5876,-17768,-1028,-9065,8316,-2841
37889,10480,-5428,240,17498,-4369,-4918
37911,20924,11228,1584,5275,1392,3490
37933,12492,164,2216,-6662,13494,8419
37954,7308,-3740,2432,702,2639,-5220
37977,17268,-932,2668,1148,-159,-7879
37999,16200,-1088,1952,1968,8185,-4387
38021,13676,4248,3260,1567,3722,-8961
38043,20384,732,2056,-5867,5813,-7005
38065,15740,-7816,1916,131,10980,4081
38087,10216,-316,4100,10724,6848,831
38109,11368,9268,6160,5744,3607,-2973
38132,15388,7048,5268,-5669,3867,-2118
38153,12300,-3228,4644,-5714,8340,4622
38174,6996,-2832,4832,201,2547,-833
38197,12868,-3228,4136,-786,-2809,-5361
38219,15436,-4548,4108,2842,1341,-2358
38240,11392,544,5204,3816,1001,512
38263,12104,2012,5220,1264,-996,87
38285,12184,128,4636,-3431,-2132,-898
38307,15376,-6684,3240,-1983,-2066,-1693
38328,13748,-5052,3708,4923,665,608
38351,11568,-428,4184,6914,-1101,188
38373,12396,5712,5000,2370,-59,3342
38396,9988,-2776,5096,-5749,708,5847
38415,6440,-8564,4616,1087,-2081,-82
38439,10980,-3516,3528,5797,-8110,-5427
38461,14812,-3324,3388,1172,-1552,4829
38483,6780,-7304,3708,4083,208,8415
38505,2684,-1708,3580,7194,-4902,1148
38527,8596,-2832,2716,-288,-10563,-5417
38549,11448,-9532,1652,1903,-5714,2533
38571,5040,-7640,2372,9256,-5846,6681
38593,5616,-592,2532,11954,-10157,3746
38614,7296,2872,2196,3431,-10326,4080
38637,6764,-7020,556,-806,-8242,8893
38659,1800,-9268,-3396,8936,-18759,-414
38681,26408,308,-8368,13803,-31479,-12013
38703,32767,2280,-7896,3525,-5113,12658
38725,14708,-8580,-4804,1029,-1591,560
38747,26792,-6388,-11264,19770,-27919,-22349
38769,32767,11404,-15932,21401,-18943,-12880
38791,32767,15852,-9444,1584,14936,5306
38813,19408,2964,-5848,-3633,15060,8969
38835,27376,-700,-6616,6060,-5131,-7316
38857,32200,8148,-4232,2576,8543,7711
38879,18780,-4188,-4248,-4457,8146,709
38901,17476,-5856,-3352,9221,347,-10384
38923,21860,8512,-4592,6829,-4893,-9697
38946,29380,3684,-5676,-6300,2788,140
38967,20572,-6056,-5156,-3345,13064,9187
38988,10360,-2348,-2248,823,11101,3693
39011,10052,192,-1480,-2052,3282,-5512
39033,16124,1248,-2516,-1530,1219,-8183
39055,17844,3764,-3164,-5400,4062,-1787
39077,17368,-2504,-3828,-8465,6422,3446
39099,13800,-5296,-3264,-2355,8331,4272
39121,12088,2892,-1952,2389,3977,-4624
39143,17116,9892,-2044,-5999,924,-6939
39164,18628,3464,-2436,-13416,6180,2046
39188,15316,-2956,-3552,-9684,6616,50
39209,16172,-2092,-3392,-2801,6324,-2259
39231,14120,10068,-2460,-517,2745,-2785
39253,18840,13064,-2092,-15375,2343,-1447
39275,14664,-700,-3680,-18763,7284,6094
39297,13372,156,-3792,-4013,-1333,-3295
39319,22320,14296,-3052,-3870,1460,-2183
39341,17184,12964,-3280,-18105,12542,7716
39363,9920,3720,-2972,-14116,8069,4539
39385,11400,14340,-1040,-9455,1894,921
39407,17784,19692,-3828,-22582,3474,5401
39429,11160,10972,-5956,-32183,10578,20114
39451,5244,1924,-5636,-31418,8493,15774
39473,5540,-584,-5488,-26604,206,10772
39495,16900,-10316,-10208,-32768,184,15906
39517,5348,-32768,-8992,-32768,13283,15269
39538,-12508,-32768,-712,-348,-6912,-2000
39561,21796,-3596,-1868,3085,-32768,-1572
39583,32767,-15764,-4912,-29407,7548,25113
39605,-1368,-32768,-6928,-32768,32767,26644
39627,-14004,-32768,-2128,8683,-20860,-17378
39649,28748,-11972,-3184,32196,-24505,-20460
39671,29940,3104,-1336,3661,705,5045
39692,17968,-13248,-4308,-1906,5848,6408
39715,17584,-17096,-4128,12136,3876,-2407
39737,14488,-2168,-1764,14524,600,-6008
39759,22520,-2008,-2748,3451,-881,-4569
39781,18308,-8540,-2728,1760,6520,1863
39803,14184,-10844,-1804,5547,-1199,-2383
39824,22888,-10436,-1884,4869,-2847,-5669
39847,23504,-16504,-2432,5520,2341,-9241
39869,21752,-12764,-2924,14454,515,-12182
39892,28308,-4744,-2300,12142,1259,-9091
39913,25748,-5976,-32,5898,12357,-704
39935,10916,-11904,1304,4281,9773,577
39957,15320,-14884,-928,11674,-8185,-11980
39979,31364,-7248,-2336,16929,-1521,-13557
40001,28264,-5500,-2768,10296,9400,-6067
40023,22336,-9620,-2976,11572,12571,-3376
40045,14940,-7580,-1080,13200,11171,-2638
40067,12044,-4356,700,13282,4258,-7493
40090,14100,-1496,1320,11861,-2251,-8838
40111,25528,-2240,-2548,11189,-262,-12290
40133,22976,1260,-2464,10803,12606,-4934
40155,14052,-756,-1284,8788,15303,-2962
40177,9700,624,-804,13877,10767,-3685
40199,11936,7348,-108,14388,7553,3603
40221,13324,9032,1776,9221,8589,9066
40242,9132,9140,2908,8942,12954,10893
40265,1300,11948,3484,1963,7865,6427
40285,6900,668,1104,-4522,-76,765
40309,12892,-184,1812,8272,3314,2136
40331,8008,11824,2660,7054,6238,5420
40353,5432,9460,3692,-5042,4667,1489
40374,6712,-932,3656,-5733,813,-5773
40397,10816,-44,4024,409,1299,-4056
40418,11456,3440,3608,983,4444,1407
40441,6124,3432,4844,-1253,5785,5668
40463,6492,48,5836,-163,1270,3847
40484,7512,2376,6244,841,-114,751
40507,9820,2176,4788,-2036,-2819,-248
40530,13864,-1480,3464,-1486,-2982,3059
40551,16040,-1696,3568,1028,-222,4130
40573,15796,-3644,3652,-388,2990,1773
40595,10864,336,4292,1014,3107,-4297
40617,12780,-84,4336,-6358,909,-8392
40640,12724,-9300,3468,-7423,2426,-1152
40661,9020,-13832,2784,3501,3464,4895
40683,5168,-4496,2912,10350,1984,-1120
40704,3216,6460,3744,530,-2398,-12651
40727,9116,-2588,2908,-11063,-4682,-14450
40749,9028,-12692,924,-851,-1558,-5583
40772,7112,-7556,944,11099,-4870,2129
40793,10328,-340,3272,15453,-878,9509
40815,4288,8336,6352,10187,5161,7123
40835,3224,884,5464,-2428,2468,4543
40859,1828,-7856,5292,3024,-209,9154
40881,1448,-8364,6860,1138,-7552,5749
40903,10564,-13308,2776,13046,-14827,1291
40924,18404,10172,4112,12114,-15356,-5310
40948,26644,-2972,1004,-9600,-14002,-3209
40970,31920,-14548,-3040,16837,-8603,8207
40990,24896,14868,784,23395,3568,7794
41012,14084,13628,-960,-3853,-17333,-9620
41035,32767,3264,-8556,1568,-20648,-13389
41057,32767,5276,-6156,274,7486,23449
41079,21200,-6956,-3732,-156,2601,21101
41101,22528,-11528,-4988,8047,-8021,-5426
41123,29496,-2968,-6108,6070,-6595,-9289
41146,25740,-4780,-6380,11800,-2289,-4722
41167,20112,9736,-2324,10760,-4960,-5580
41190,26852,2716,-2940,-2556,-6372,-4186
41212,23656,-7104,-4336,3263,-579,1376
41233,23252,-1168,-3544,7467,1056,-1064
41254,17068,3300,-2172,3352,6553,-395
41277,14272,5744,-3008,1679,-498,-6296
41300,23304,6588,-4608,-5237,454,-4030
41321,21012,-1920,-5808,-7613,10061,2889
41343,12156,-1120,-4388,-1370,10501,2594
41365,11616,5348,-3220,-1752,4192,-2667
41387,17024,8104,-4344,-6265,4909,-1434
41409,18336,7872,-5900,-8180,7896,9003
41431,15836,7772,-5376,-11333,13261,17677
41453,5468,8920,-784,-15701,13198,3647
41475,10540,1028,-3176,-21839,-5201,-10622
41497,31464,-2980,-7724,-10695,-2039,-8749
41519,28228,5336,-7084,-10996,16115,3398
41541,11004,6584,-2416,-11634,18274,2566
41562,12208,11400,-2004,-15997,843,-2439
41585,24272,5536,-4668,-21244,8725,6862
41607,11128,4244,-4056,-21257,14804,11780
41629,4820,2916,-1440,-22533,8656,7629
41651,5828,-852,-3548,-24599,-1523,6516
41673,20436,-9944,-5408,-18343,-2117,10949
41695,25472,-5416,-3844,-15116,13814,19782
41718,-260,-7608,-168,-31737,23954,21159
41739,-5532,-24528,-1880,-24526,-4124,2429
41761,22188,-32592,-5500,-12972,-7598,-4487
41783,4300,-22816,64,-3245,11896,1395
41805,-5632,-8888,3564,-7918,-12871,-18982
41827,22836,-14296,-836,-13570,-21554,-13928
41850,31520,-17096,-2504,-9869,-1940,1813
41871,13420,-17236,420,-11524,13006,7215
41893,-1616,-21560,-548,-6525,-7033,-4721
41915,25496,-9088,-2792,4710,-21913,-11065
41937,31240,56,-2156,-5513,4600,10770
41959,12116,-14500,-3904,-9395,8281,8334
41982,15060,-16252,-4240,6452,-1776,-3697
42003,23040,-5944,-2376,5197,1048,-2944
42024,17552,-9832,-1260,506,7926,3569
42046,12424,-14008,-1360,4104,-744,-4058
42069,25284,-12236,-3516,8871,-4608,-9919
42091,28128,-11444,-2408,5774,9083,-2100
42113,12488,-15088,176,6431,10630,-3175
42135,13248,-12964,-540,12926,-4671,-13750
42158,29180,-9236,-2528,12657,-5620,-15205
42179,27820,-8720,-1612,11028,7908,-5812
42201,23600,-14824,-2736,10912,5043,-8554
42223,25152,-9900,-2800,18627,5627,-10233
42245,21260,-56,-12,12417,6603,-5066
42267,15684,-5912,-212,8155,5250,4174
42289,14096,-11328,-3288,12735,-5390,-3425
42311,24144,-3768,-5296,17440,-8837,-18738
42333,32767,-356,-6824,9212,1589,-16665
42355,28048,-6432,-6632,10081,22977,2212
42377,10528,-2280,-3600,19108,22215,9167
42399,5416,6656,1256,15958,12253,6941
42420,5856,10712,2988,7554,5803,3669
42442,8032,6796,1132,-3263,936,7008
42465,14280,-1220,188,-3763,-1421,7604
42487,13140,-6144,832,126,6626,14597
42508,6668,768,1040,8569,1704,3882
42531,12824,7988,3040,-1354,1002,-3387
42554,10888,-2620,3460,-5165,5973,-4728
42575,11504,-3524,2444,10931,-407,-12516
42597,19572,17900,2284,13774,1318,-8309
42619,17448,14872,5028,-8243,10812,9417
42641,9448,-6452,2316,-2942,11113,11078
42663,7824,3056,3272,8333,5908,-691
42685,10408,9960,2924,-7276,5456,-7912
42707,13568,-8684,2040,-13729,8929,-7071
42729,8380,-10412,2408,9108,6751,-3860
42751,13820,13028,3032,11493,217,-6091
42773,18536,10348,2464,-6874,8508,3297
42795,9516,-2220,4500,-4662,12932,2887
42815,3720,416,5716,11,5599,-2257
42838,9928,-128,3020,904,-349,1368
42861,13404,1844,3404,-503,1505,8000
42883,12556,-2864,4020,-3844,5397,6877
42905,7240,-2544,4056,-2600,2149,386
42926,11824,-3292,3580,-5690,461,-2046
42949,10124,-7848,3496,-4826,1881,2828
42971,9300,-6104,5148,-3050,-1595,1257
42992,10652,-11148,4456,-4284,203,66
43014,6788,-7984,3652,1869,-2292,-6502
43037,9068,-5524,2928,-276,-3779,-4948
43059,6172,-8380,3572,2179,-2907,1029
43082,5736,-3560,3528,5497,-6741,-1972
43103,9188,-1132,2076,1502,-6831,-5093
43125,7152,-5860,1792,-775,-1263,-1678
43147,1876,-11936,1244,6088,-7888,-3266
43169,8616,-1820,868,16170,-12840,-5822
43191,15152,6440,532,7705,-10668,-2382
43213,10196,-1176,1320,-3052,-386,1732
43235,4964,-13332,24,4371,-8667,-9994
43257,12276,-4808,-812,18942,-15721,-10456
43279,22924,5420,-1176,13806,-16294,810
43301,26508,1000,1712,10573,136,17936
43322,1924,1872,5520,7091,509,11249
43345,15528,-1716,-1440,10486,-30636,-3220
43367,32767,-64,-7644,13085,-21746,5152
43389,32767,7608,-7040,11387,4770,19718
43411,19044,3312,-2188,-3041,17310,22293
43432,2116,-3928,-3352,4449,-6882,1632
43455,30712,-2444,-9448,5888,-29555,-4984
43477,32767,-13672,-13212,5981,-5837,7143
43499,25032,-2668,-6696,17840,20498,17983
43520,968,2668,-1568,-751,2085,2499
43543,13736,-10212,-8876,4969,-22985,-20831
43565,32767,5488,-12080,11715,-23348,-21317
43587,32767,4516,-13908,-677,-3129,-2955
43609,31744,8,-10972,-116,16065,8116
43631,15388,3640,-6164,-4105,17218,3434
43653,11040,-72,-4428,-6523,8743,-3317
43675,16476,-424,-5460,-4112,4256,-2915
43697,21568,-2352,-6640,-4745,8223,2166
43720,15540,-2240,-4996,-4383,15733,4270
43740,6908,-2148,-3084,-6908,13587,257
43764,6852,-2884,-3920,-3888,2984,-6496
43784,20008,5940,-5220,-3651,-2123,-6051
43807,25260,1448,-6240,-15117,15063,7762
43829,6848,-4964,-3544,-8065,19696,6001
43851,3036,5188,-1156,-1389,2540,-4050
43873,18744,12284,-2604,-8759,-4883,-10219
43895,24404,10236,-4612,-18908,7157,-2146
43917,14560,2576,-4664,-19059,13559,1049
43939,7084,8436,-1716,-13251,4713,-3849
43961,17952,9260,-3044,-22552,-3047,-4778
43983,24172,-4240,-6608,-20637,7912,7230
44005,11980,-272,-1876,-10702,11273,4214
44027,13784,1832,1880,-17742,2042,3512
44049,18972,-11688,-268,-19590,6759,8228
44071,5648,-11116,1244,-7786,7563,3592
44093,6044,-5304,-200,-3242,-7256,-8901
44115,19660,1060,-2460,-3641,-12535,-5724
44137,30892,3100,-5392,-10478,-1285,7803
44159,21592,392,-5840,-17887,15605,19034
44181,10020,-6276,-4604,-23388,12245,10017
44203,13020,-18364,-2612,-27512,9149,5412
44225,7560,-31172,-1396,-22299,9169,7597
44247,6740,-26168,-1052,-2801,-3126,-2711
44269,21740,-12252,-556,-5196,-2539,-3784
44291,16280,-16380,508,-8963,13022,5931
44313,2396,-17616,1664,-3211,1364,-2072
44335,18212,-10772,-1756,7753,-8773,-12274
44356,23576,4704,452,-2101,4811,382
44379,13716,-12004,240,-14069,12803,9348
44400,2292,-21092,848,748,3021,1098
44424,17336,-11500,-1712,10194,-14393,-17860
44444,30284,-1064,-200,5912,1474,-4488
44467,16260,-5940,-8,-2684,8010,2588
44489,16104,-14576,-2608,4437,-2142,-7330
44511,27056,-5256,-2400,14327,-2887,-12654
44533,24564,5660,1768,5449,9693,-1507
44555,15732,-9092,1504,-5099,10090,4649
44577,12920,-19408,680,10360,2052,-3557
44599,20580,-4812,644,18388,-4994,-11363
44621,26604,-2212,1744,6730,3624,-4425
44642,18040,-14556,1228,5629,6464,-2505
44665,17964,-16228,112,18057,-2693,-11646
44687,23016,-1744,1164,18833,-2593,-11505
44709,24052,-4912,1360,8783,72,-4824
44730,22636,-9600,580,14373,-848,1131
44753,19288,-3872,128,16288,-3407,10353
44775,20152,-3132,-516,10612,-5880,17324
44797,17264,-8708,-2724,6967,-3012,21016
44819,12980,-14424,-6352,8979,-3735,10021
44841,13568,-13936,-7784,19023,-8607,-4806
44863,20340,1892,-8096,25084,-8109,-11920
44885,20272,9948,-5628,9037,1401,-8003
44908,13716,-4424,-7080,4793,3814,-4457
44929,19504,-4808,-8372,22146,-451,-11501
44951,21644,10088,-7532,25425,9684,-1783
44973,13172,14688,-2928,14234,15429,-2621
44995,8492,10704,-2312,6828,12885,-4942
45017,6800,8352,-736,7886,10659,2694
45039,492,15128,2244,6929,4967,10658
45061,948,12652,2232,-3318,-790,4487
45083,6560,11292,1204,-5048,-5007,-5447
45105,13004,6596,992,-11963,-1072,-2739
45127,11772,-2580,-132,-10220,3395,-2852
45148,9272,-3664,532,1516,2955,-952
45170,11040,6076,896,4843,-276,-875
45192,14692,8108,-760,-4641,1864,-354
45215,18528,-2836,-2528,-8613,2337,-4035
45237,23076,-3676,-1952,1468,8209,-247
45259,16016,4880,800,-919,12173,3104
45280,13636,620,1056,-5886,8082,862
45303,18136,-2748,1444,-3642,6119,-1744
45325,18048,-2820,2488,-3062,8527,1806
45347,16012,-2960,3344,-922,9965,497
45369,9804,1316,4668,-4829,10324,-3300
45391,8188,-5968,3536,-9291,4392,-3686
45413,8764,-11012,3432,-466,-451,3441
45435,10760,-5020,4296,3511,-3291,6415
45457,11360,-3980,3344,-172,1174,2115
45479,4632,-8196,2940,-3402,3094,-725
45501,980,-14856,1648,1160,-1683,-2969
45523,2904,-11652,232,12411,-9126,-4410
45545,10716,388,1008,12670,-10302,-3849
45567,10056,-2528,1812,2600,-2709,2143
45589,4516,-14396,512,8933,-2969,4174
45611,2600,-7612,1232,22523,-10475,9697
45633,7496,4316,1712,23060,-12248,14514
45655,7312,6440,1288,6894,-12667,12057
45677,11780,-5288,-2460,5895,-16786,2789
45699,20144,-4688,-4796,8556,-24275,-8094
45721,32767,-3108,-10828,11165,-25306,-6618
45743,32767,-84,-12632,13521,-12481,7894
45765,32767,5580,-8268,11871,14245,25060
45787,17048,4804,-3704,-2171,10187,6224
45810,26116,-9620,-6428,-2305,-4477,-10307
45831,29420,-4424,-7952,7684,2612,-9599
45853,24752,3504,-8536,7191,-389,-7950
45874,32767,4328,-8544,762,-44,-3667
45896,26964,-1480,-5016,-952,16782,12838
45919,10260,-3388,-652,274,11479,8567
45941,7772,-3296,896,1682,-1139,-2362
45963,14860,-3396,-536,2364,-8817,-9462
45985,27516,-1364,-5068,1608,-9255,-14930
46007,32767,-964,-5300,-915,8557,-3100
46029,16836,-364,-2940,-3635,18341,5344
46051,10780,-3008,-1552,-1564,9763,1860
46073,13404,3328,-1008,-259,6696,857
46095,15464,1540,-2600,-7468,8925,-2598
46117,12432,-3252,-3616,-4209,8691,-7511
46139,11600,4192,-2412,998,3490,-7162
46160,16252,8616,-2756,-5359,2414,-5859
46183,13176,4232,-4124,-8819,3671,-1425
46204,14500,1912,-4584,-6035,-1233,-5362
46227,17476,6220,-4508,-3679,1886,-3267
46249,18696,8948,-4688,-7436,1834,-4867
46271,18356,7932,-5072,-11346,9616,1046
46293,10456,7604,-3520,-13658,7826,1339
46315,15260,4156,-2592,-18813,3333,2570
46337,14564,-4544,-2224,-16229,9681,2329
46359,9712,1400,-1448,-9546,3177,-1146
46381,11820,10936,676,-18489,2758,-113
46403,10924,-6696,952,-32768,-3288,9714
46424,18916,-19884,-4360,-17255,-3905,3904
46447,19484,2624,-1840,-8990,4676,13001
46469,9164,5880,2464,-25561,13665,21041
46491,-3792,-13568,624,-32768,-148,10480
46512,8860,-29240,-5628,-23756,-21505,5590
46535,25640,-13304,-5164,-6864,-19499,19654
46558,31588,-6452,-4276,-14444,3641,27896
46579,15964,-18536,-4168,-21068,25339,19909
46602,-4028,-27544,-3720,-15320,14101,14275
46623,6556,-24200,-4292,-3549,-10791,593
46645,24792,-19008,-2196,3645,-2340,7181
46667,18184,-13296,-284,3558,15435,16932
46690,6044,-13400,2600,3830,12132,8312
46711,4168,-8916,4132,5599,2033,3055
46732,5392,-5856,1784,618,-5331,-1532
46755,13024,-10300,-2856,-3821,-13844,-8944
46777,23948,-11232,-6100,-564,-18037,-3942
46799,32767,-8944,-5548,646,-1069,2165
46821,20880,-10384,-3260,-2004,21639,14574
46843,2128,-12468,-1136,1630,13055,10418
46864,5728,-9240,-800,3775,-6386,613
46887,17916,-8736,-1656,-177,-7807,-1581
46909,23316,-13724,-2876,-2974,477,991
46930,19444,-17732,-3120,3991,8720,7314
46953,15772,-13864,-1556,7058,7007,5298
46975,16204,-14720,-856,838,6355,1358
46997,19176,-21688,-2432,30,5105,-487
47019,23320,-22392,-2404,8769,9110,1080
47041,20644,-15168,2600,8645,14636,573
47063,14848,-18464,5500,-529,17923,-3365
47085,8228,-29972,3716,4073,11518,-13012
47106,12708,-25468,880,21434,-861,-25252
47129,26360,-9748,1600,21645,-456,-18046
47151,24608,-10340,2948,8208,17646,-7013
47173,5300,-19916,3192,6527,19069,-9851
47195,3536,-22152,2584,17376,987,-20422
47217,14536,-10988,2404,25133,-981,-17290
47239,12512,-3432,4284,21762,5559,-10590
47261,4496,-2648,4072,16985,3684,-7013
47282,1696,-2116,4320,16635,-5361,-11367
47305,9060,60,3640,14321,-12253,-16432
47327,14612,-140,932,13225,-7348,-16361
47349,13976,3784,-1260,14180,-4736,-16094
47371,18196,8428,-988,9715,-2779,-17316
47392,19456,3136,-724,3133,9435,-8707
47415,7956,-3000,-1472,13413,11856,-1564
47437,6472,11192,-588,24575,3888,-3347
47459,11512,19564,2968,10189,4466,1069
47480,8308,9848,2768,2464,8344,4407
47503,7984,13316,1616,5173,2230,-1227
47525,13700,16336,2152,-6787,2715,163
47547,12824,5076,2572,-12079,8027,4282
47567,7624,1388,4324,-2140,6083,637
47591,8796,10636,3576,-864,-424,-6793
47613,15620,10704,3544,-12193,1265,-4466
47635,14908,796,4060,-14223,5654,-1659
47657,9616,-1236,4452,-5813,5413,-498
47678,8336,5644,4820,-1762,409,-428
47700,11412,4076,6072,-8222,54,4755
47723,10156,-8260,4840,-5871,566,8427
47745,9988,-8144,3664,10264,-1299,7678
47767,8688,6120,5192,11857,-3543,6757
47789,12424,9200,5644,-1807,-4432,9529
47810,12692,-3672,4804,-9473,2199,14090
47833,3836,-8668,5544,-6020,1958,4987
47855,3676,-11320,5204,-7116,-3062,-683
47877,4604,-18168,2212,-1707,-1641,966
47899,-1172,-15476,2092,9598,-3958,5631
47920,-1316,-6048,2084,12303,-8288,-2016
47943,252,-5252,5968,4214,-9249,-3324
47965,-3308,-13148,4184,6789,-11648,-2002
47987,-784,-6692,-1500,22831,-23356,-13578
48009,17636,13120,-968,16164,-30794,-14336
48030,27340,292,-2584,-8921,-12904,-8706
48052,13436,-15328,-5408,11571,-6607,-7342
48075,18132,8000,-8008,26767,-25976,-14265
48097,32767,13880,-8900,14765,-14906,3140
48119,23268,7040,-5340,9619,8006,17851
48141,6056,6440,-4628,14190,-8080,3303
48163,25872,12636,-10328,14341,-29878,-2266
48185,32767,7744,-15144,3998,-13041,10351
48207,32767,1192,-11804,6368,11273,18878
48229,13124,4244,-6832,7466,8316,11731
48251,16900,4408,-7792,4284,-11510,-1209
48272,31388,3452,-9164,3470,-6458,-121
48295,28920,488,-9744,-559,3263,2698
48317,20888,-1852,-8796,3282,5469,791
48339,18952,2244,-8184,4729,-23,-4681
48361,23564,6480,-9264,5770,-1177,-4895
48383,26132,9232,-8124,-6450,5669,1250
48405,16080,-5588,-7148,-8488,14236,7433
48427,8464,-4332,-5620,5232,2500,649
48448,16772,4712,-5348,4288,-1093,-170
48470,17948,8300,-7032,21,1914,-2210
48493,21612,7692,-7704,-12790,5306,-3448
48516,15684,-3572,-7848,-10492,11909,3674
48537,11228,3424,-5900,-1449,4987,2224
48559,19792,18236,-6988,-6604,2458,-1276
48581,23184,15764,-9420,-31543,14026,6945
48603,14704,-10212,-9472,-30613,16562,6658
48625,14400,-2804,-5540,-1589,9634,-6363
48647,15172,18600,-3048,-10740,13973,-3307
48669,11328,11068,-5364,-22619,14717,-9306
48691,14192,6956,-7584,-23250,4256,-11163
48712,22880,-1248,-8804,-22774,8464,988
48735,11072,2756,-4524,-13077,15394,6493
48756,3988,7916,-2760,-18312,5408,-975
48779,13140,-928,-4668,-17905,1907,-5296
48801,11000,2576,-4984,-15106,-97,-617
48823,13468,2156,-3976,-19472,976,6577
48845,4500,1496,-1316,-18987,1728,7120
48867,8396,-4092,-3880,-32768,-15222,-3339
48889,29596,-32768,-11884,-32768,-12712,678
48911,23524,-32768,-4972,3501,3402,15457
48932,12564,-920,1944,4598,3,12435
48955,14588,-6156,1988,-24309,-1875,6965
48977,16404,-32768,-3008,-16609,-4339,7522
48999,20940,-26908,-2320,11106,-4428,4752
49021,21084,-4196,704,11070,-2122,4407
49043,20124,-3624,68,-5480,2626,2482
49065,18448,-16040,-2664,-3608,631,-1470
49087,23064,-9340,-1940,10032,-426,-4296
49108,23388,648,-12,2750,7836,1588
49130,14716,-8788,-52,260,9766,4183
49153,14260,-3696,736,8961,686,-5630
49175,22116,-1664,-144,-2706,-382,-4881
49197,23332,-17900,-1904,72,4062,-2909
49219,20420,-10072,-396,14803,1104,-6720
49241,24836,-2196,1012,7030,2856,-4699
49263,24588,-13092,-2136,3156,5002,-4526
49285,28240,-17900,-3888,12840,5160,-12846
49307,26440,-7380,-824,18803,13023,-9093
49329,17008,-4676,984,12707,12256,-7777
49352,17884,-9612,-508,15241,4011,-13903
49373,22688,-2848,-728,20049,-850,-11616
49395,32767,-1928,-2120,12294,3151,-7044
49417,24036,-7368,-3416,13187,18315,-1389
49440,11336,-3216,-3276,17705,10559,-15328
49461,18516,3712,-2980,14921,5889,-19613
49482,19724,2084,-2288,9919,14303,-5520
49505,10672,860,-2816,16350,16980,1052
49527,5544,10660,-2800,19121,12804,6136
49549,7108,9348,-2832,10003,9534,8275
49571,3476,3092,-1856,13448,11914,10487
49593,-868,11628,-920,19775,3506,5247
49614,5024,21076,-1092,9724,-1820,501
49637,10672,15288,-912,-1177,1929,1188
49658,5444,11028,240,223,8835,4393
49680,1744,7224,164,5021,-1842,1461
49702,14180,16900,680,4893,-2834,-417
49725,17060,9036,1148,-7756,8282,8660
49745,7668,3468,1516,1656,11576,12468
49767,4552,10024,3344,1682,6050,9561
49791,7688,6136,3864,-3892,1953,14743
49813,9552,184,4916,-1398,1609,17044
49834,10108,4544,4732,-939,173,5340
49857,14600,1232,3528,-11930,1760,-2645
49879,11000,-10080,2700,-10348,4321,4013
49900,9448,-12668,4944,1152,412,6084
49922,7612,-3760,7588,4474,104,4568
49945,5152,-3032,7356,-3951,-843,-1268
49967,1348,-10644,4356,-5053,-5169,-5129
49989,5404,-11404,1944,2615,-12513,-10890
50011,9956,-7352,324,6805,-13351,-8538
50033,11124,-5036,-404,8734,-11992,-2401
50054,9840,-3420,-244,12987,-7832,5056
50075,1740,-276,384,11097,-6386,5452
50099,-2436,-12180,-2988,4326,-15328,-8870
50121,4776,-27728,-12376,27871,-29002,-23496
50143,26732,10048,-16044,32767,-32768,-25227
50165,32767,32767,-5728,23721,-5782,-3007
50187,15424,14960,-8144,-29881,13498,9531
50209,17096,-19892,-13420,265,-18466,-20203
50231,32767,10944,-14804,32767,-13078,-9481
50252,32767,26700,-10232,11075,22378,30936
50275,10860,13120,-4944,-5530,25447,28126
50297,4640,-172,-4828,-5732,-5633,14
50319,32132,-1924,-8228,-763,-12456,-6769
50341,32767,-2972,-7800,-1344,6128,8992
50363,21192,-5120,-5492,5494,10317,10977
50384,12796,5896,-1952,6840,7571,3154
50407,11264,6020,-1664,-2634,177,-1610
50429,14396,-216,-3240,-1772,-4486,-1282
50451,17124,1696,-4196,2061,-4394,639
50473,15948,2156,-3448,-2369,-1761,3266
50495,14172,-5128,-2732,-3556,-1592,1565
50517,13576,-3996,-3356,4575,-3535,833
50539,16024,1280,-4956,3987,-4602,-646
50561,19916,4232,-6264,587,-4060,-1497
50582,23136,188,-7592,-2475,1089,-73
50604,20072,-1948,-8820,3330,6956,1247
50627,14580,4052,-8716,9138,9323,4318
50648,8500,18608,-7420,4965,5235,2
50671,13308,16772,-9732,-10895,98,-7895
50693,13560,16012,-11688,-9693,3636,-7343
50715,13300,17840,-13624,-19335,-989,-8346
50737,16764,16320,-15192,-18905,-50,-5611
50759,15792,17532,-14980,-28100,1672,-342
50781,14168,6140,-16852,-29354,3089,1853
50802,12964,7588,-15388,-24981,1404,3171
50824,13420,8836,-15116,-27340,4327,6811
50847,8108,8364,-16800,-32768,3529,7597
50869,10412,2384,-15248,-32768,652,6328
50890,15996,2528,-17004,-32768,-4788,9340
50913,22812,-13676,-18824,-32768,12518,23484
50935,1320,-4676,-14572,-31966,11104,16725
50957,5576,-13612,-10288,-32768,282,2253
50979,21204,-32768,-22100,-32768,-20914,-1052
51001,32767,-32768,-14216,8416,-11629,-18104
51023,32767,7944,-3632,19162,30203,6863
51045,432,-3916,148,-25468,32767,14088
51067,-22456,-16376,5784,1520,-482,-64
51090,28956,4548,-1904,3716,-32768,-27789
51111,32767,-4868,-2632,-17904,19524,9239
51132,-10788,-12368,4608,-4291,20758,9740
51155,9792,-12368,320,-25,-27219,-21795
51177,32767,-11484,-6100,7662,-7495,-12579
51199,17168,6312,-1564,10595,26550,9293
51220,-5904,4448,1084,1935,1870,-1457
51243,24412,-24,-3012,8177,-13539,-13166
51265,29132,6256,-2064,3838,12613,1633
51285,2696,3308,-488,141,9986,3786
51309,14508,772,-2580,4207,-9957,-8508
51331,28372,4164,-2728,3095,-515,-2623
51352,21544,68,-844,-3227,7224,2604
51375,19772,-11540,-1472,2436,4790,-1186
51397,22548,-4244,-2028,12271,2037,-3911
51419,28408,-676,-2056,8303,9169,-193
51441,17804,-1880,-596,8007,14055,3420
51463,14596,-3388,-112,11197,5676,-2579
51485,28216,-2260,-2072,12647,1670,-10608
51507,30544,1988,-296,11347,15740,-3301
51529,15676,-4412,2052,7415,16340,-269
51551,21772,-10924,-1120,17347,3569,-12189
51573,31992,6448,-1416,25807,6253,-13600
51595,32767,13920,1892,8786,17839,-712
51617,16916,-720,3928,5279,23956,12059
51638,1428,1244,6412,11095,-344,9691
51661,25136,-3780,-2656,5656,-22296,-9415
51683,32767,-5512,-8344,16040,-1613,557
51705,25096,4600,-8908,19046,5647,10938
51727,24952,3832,-8320,13897,12895,23093
51749,15388,-2708,-6836,14934,24161,28923
51771,3656,-1556,-5120,25242,23248,27755
51793,-2312,19964,-324,28788,11796,14734
51815,584,25660,2584,-1154,4394,18587
51837,1496,-1636,1152,-6302,2317,22252
51859,404,1084,1772,15117,-6488,11283
51881,11660,17392,1912,6939,-9237,-1585
51903,18028,7148,548,-8595,579,-6004
51924,16860,3276,1216,190,7480,-9963
51947,8336,11984,2264,-2739,11428,-6378
51969,7336,3592,2140,-8964,3467,-8645
51990,14612,-4980,2048,41,3668,-851
52013,14156,1584,2632,7802,4506,2482
52034,14180,10932,3376,1136,6805,75
52057,12180,4964,2780,-10281,5664,-4981
52079,13736,-5968,2500,-8421,4076,-1202
52100,12164,-7036,3588,528,3283,2291
52121,11084,-620,4492,2694,-519,3317
52145,13680,320,4084,-1688,-1662,3692
52167,13912,-348,4188,-2898,-1290,1360
52188,13876,-1712,4496,-5192,-1576,391
52210,13524,-4100,3468,-3572,510,657
52232,11996,-4732,2888,-1683,1655,-933
52254,8648,-4576,3444,-760,3423,3710
52275,8056,-11936,2568,-817,898,7196
52298,15992,-19328,-3656,11894,7412,4398
52320,4632,-2192,1932,25230,16414,-12
52342,-3176,3764,6160,912,10961,-16184
52363,-1928,-20208,1472,4397,9524,87
52387,-3016,-10572,2204,30522,2410,3716
52409,-2868,15760,10636,13866,8384,-2232
52431,-13192,-5476,7764,-3323,-12943,-4624
52453,15860,-1316,-392,22052,-32768,-18237
52475,32767,20184,-4900,12028,-27181,1162
52497,32767,8952,-616,-8870,16587,31298
52519,1836,-4096,8476,-6495,12600,24227
52541,20820,-8280,1312,2953,-32768,-19856
52562,32767,9156,-3028,10237,-18710,-6545
52585,32767,15128,-124,-5368,15330,15627
52606,9464,-348,4856,-16253,10948,18525
52629,9904,-19400,4648,-5577,-8436,2817
52651,15432,-14628,-1340,19310,-17258,-7838
52673,24000,15812,-5900,22031,-25910,-8192
52695,32767,21456,-6456,-6405,-20078,-10224
52717,32767,-2544,-5120,-18397,13748,20736
52739,15076,-10872,-1488,-1729,16666,12170
52761,14836,-4260,1116,663,3480,-1537
52782,17040,-4772,648,-704,7082,-810
52805,11724,-5124,376,1655,4112,-1382
52827,15836,-3908,-248,5788,248,-4408
52849,17808,6720,-1380,6720,986,-7910
52871,20608,4236,-1648,-8874,5680,-929
52893,11856,-6252,-1084,-3299,9587,5689
52914,9152,772,-124,3727,-2461,-2053
52937,18760,3048,-1376,-3010,-2905,-1976
52959,15504,-2704,-2536,-3034,1256,-1895
52981,16484,-516,-2116,3163,-6978,-3309
53003,24244,7984,-1836,1260,-1492,1366
53024,18652,6820,-1380,-10395,8753,6022
53047,10756,-1652,-1212,-9998,3821,3879
53069,16376,-160,-1784,-5054,-4729,-119
53091,23756,5396,-2312,-9472,489,3284
53112,20156,1392,-2884,-16839,11578,8259
53135,13288,-5072,-2584,-13304,10983,7919
53157,12380,368,-928,-6978,10123,7511
53179,10328,7328,832,-11804,13703,6683
53200,2820,336,-68,-21249,9374,9155
53223,6304,-3516,-1076,-12072,-2901,-1386
53245,19424,4232,-584,-11760,-2934,2188
53267,20424,-1152,-952,-21512,10985,14329
53289,9512,-12388,-1868,-18984,14580,16581
53311,6988,-11952,164,-8154,5776,8205
53332,14368,88,2908,-10572,972,8560
53354,21048,-10180,-488,-25953,7732,23733
53377,7564,-21276,320,-17628,18727,21626
53399,-1844,-16056,1524,-12631,3845,9645
53421,10628,-18860,-652,-11661,-6149,7664
53443,16120,-14972,-1448,-1399,1203,5606
53465,12704,-420,-208,-4237,3685,6908
53486,11340,-2072,-1784,-16097,6467,10356
53509,6948,-13972,-3848,-17568,4945,10715
53531,11052,-15128,-3976,-9253,213,5415
53553,14548,-8508,-3944,-12954,4174,7775
53575,10468,-15852,-4900,-18241,10133,12344
53597,8132,-21352,-5388,-8222,6689,8677
53619,12872,-15072,-2836,-6889,4703,7123
53641,18092,-22740,-3720,-13314,13175,12045
53664,5376,-28480,-1476,-5186,18784,14895
53684,328,-24468,-232,683,7422,6896
53706,9548,-20784,-448,7387,1408,-2441
53728,12776,-9376,968,5817,7072,-940
53751,5732,-10156,2308,-2260,10039,2747
53773,-816,-14568,4060,-421,1911,-1736
53794,6316,-15928,2120,1767,-13202,-5748
53817,21428,-16760,320,1317,-11768,-4271
53838,24076,-17884,-1272,1619,956,824
53860,15312,-17548,8,1839,8755,2444
53883,7520,-15148,1660,2868,7346,-282
53904,8536,-15488,568,3510,721,-3833
53927,12944,-11228,324,3994,1897,-948
53948,13692,-15280,-56,570,7138,2484
53970,7716,-18268,188,4017,7014,3546
53992,8376,-13860,920,7349,1223,-793
54014,14208,-14100,1060,3629,-161,-728
54035,17208,-19832,872,4397,6294,252
54058,8852,-19940,2748,7432,7696,-1372
54080,8320,-18600,3740,7356,-919,-7257
54103,15412,-19860,2196,9443,-1752,-7841
54125,16108,-16332,2404,11702,2182,-5458
54147,12476,-14772,3044,7442,5504,-1712
54169,3340,-18748,3148,2961,772,-7102
54191,6012,-23288,2208,9081,-15089,-15786
54214,21828,-19372,2284,16080,-13270,-23060
54235,17292,-16208,3748,10364,3521,-14020
54257,6656,-24336,2632,12001,-340,-19156
54280,9644,-18716,2144,21425,-10453,-21711
54301,15464,-13764,2120,16671,-9877,-15410
54323,9104,-15208,2380,14661,-6232,-10575
54345,9612,-18080,-1348,18285,-15565,-23827
54367,20028,-7228,-4092,25137,-15585,-29010
54388,23992,3164,-3560,16039,-4848,-20859
54411,20652,-4076,-2972,7567,5402,-11328
54433,16184,-8360,-4608,15347,5891,-1918
54455,13412,-1300,-2012,21297,8128,1673
54477,9216,6620,-1720,18701,7274,-5090
54498,5180,12392,640,5859,3951,-13847
54520,10536,3020,-792,-2078,-2926,-18626
54543,14812,-1604,-2248,3402,3069,-9940
54565,9532,4080,-2572,11724,3031,-4142
54587,11240,12552,-616,9364,4438,-4031
54608,7484,11464,908,1983,6162,-4850
54631,6544,7028,-192,1255,1367,-11844
54653,13036,7760,-1840,6056,-1345,-13522
54675,17468,14660,-424,4235,3189,-4949
54697,14188,12380,584,-2044,12145,4389
54719,10660,8120,956,-834,12651,-4443
54741,7572,12048,1756,-2033,7227,-4360
54762,11700,7996,3108,-5378,8067,883
54784,7932,4232,3968,-2789,8518,5883
54805,7536,4896,4964,-713,3755,5355
54829,10632,2704,5420,-2768,4527,5792
54850,9144,1940,5276,-178,3475,1063
54872,11852,8272,5472,-2711,1848,-974
54895,10320,3600,4916,-9992,5047,4742
54916,7560,-3292,4884,-6837,-59,2562
54939,11440,-4204,4876,-1965,-4709,4316
54961,15520,-4884,3960,1413,-2957,3582
54983,14496,-1456,3624,3896,-260,1194
55004,13188,960,5924,-3713,3340,5104
55027,5196,-10236,6464,-6801,8404,11650
55049,-4456,-12524,4368,3346,1788,3333
55071,-1620,-9152,4004,6082,-11391,-6947
55093,8476,-12596,3308,5945,-15429,-3030
55115,14180,-12520,2992,14060,-7761,254
55137,3836,-4852,3600,15197,-3522,5351
55159,-2912,-5428,2984,15300,-6787,3715
55181,-8780,-3080,1896,19346,-17374,-8662
55203,-452,-1372,-7716,22712,-32768,-19281
55225,28424,6524,-15624,29416,-32768,-18413
55247,32767,19324,-11712,18184,-10104,-5048
55269,15780,10328,-12656,13879,-15250,-3897
55291,32767,14192,-14164,23170,-22643,-2621
55312,29760,17432,-13780,14650,-616,16289
55335,12148,15012,-15656,10649,-11740,1354
55357,32767,18720,-19332,4900,-21851,-7534
55379,32767,10744,-18268,-539,1832,11927
55401,18132,6436,-12732,1226,9515,15403
55423,9980,1420,-10060,-1602,-623,4251
55445,11792,-5456,-13424,7058,-11994,-6192
55467,28192,16328,-16964,11684,-15202,-6770
55488,32767,11132,-14540,-16712,9785,12565
55511,9288,-13400,-10988,-12717,23354,22331
55533,5140,-10308,-8416,9711,-4258,-5422
55554,23072,6104,-7580,7598,-1603,-5201
55575,15536,4712,-7964,-2129,5891,2002
55597,16560,4420,-7608,-864,1299,-97
55621,15504,2808,-6388,-6469,7160,5462
55642,8940,-2328,-7380,-4307,4846,2967
55665,12652,3644,-8384,2901,-1092,-2879
55686,16196,12736,-9088,-2947,2325,-228
55710,15156,9004,-10248,-11280,7203,4012
55731,8160,3996,-10492,-9736,8711,5989
55753,8512,7392,-11096,-2657,41,605
55775,18348,16500,-13184,-2995,253,143
55797,18420,21956,-12508,-15707,11077,7783
55819,9080,10960,-13940,-27737,14455,5202
55841,10044,1708,-12956,-13909,7353,-4540
55863,15764,17692,-11728,-10885,7802,2808
55885,11308,15836,-9636,-27666,14220,11860
55907,9848,2808,-10300,-32757,6905,12480
55929,16068,-11892,-11320,-32070,3857,13763
55951,17480,-8740,-7676,-12638,11511,10422
55973,3784,6816,-3224,-22780,10936,7350
55995,7576,-17520,-7836,-31301,-2372,1086
56017,19852,-21544,-7584,-5731,-3952,-1249
56038,13952,3948,-1080,-6885,2797,3738
56061,6036,3040,-2044,-29538,157,11234
56083,21508,-32768,-9812,-27677,-9196,8844
56105,28196,-27560,-3680,7489,2667,-2125
56125,18740,6564,884,-701,3454,127
56149,21184,-920,-3404,-21115,7037,10308
56171,12628,-16940,-2300,-13121,10316,6467
56193,11580,-11120,904,-5543,-979,-5574
56216,18984,-11108,-3508,-6460,-1062,-5336
56237,13716,-1916,-832,4447,3775,-1454
56259,19488,2224,-1708,-8087,-3610,-3634
56280,22460,-12164,-2440,-5754,6816,1875
56303,11812,-4024,1388,2143,1004,-2603
56325,21020,-5404,-1248,-3333,-4125,-247
56346,22664,-10752,-4252,5009,1147,-170
56369,19788,4564,-3100,10224,1170,-2548
56391,21204,3968,-2196,-417,6919,3031
56412,13052,-2260,-1596,822,6176,2268
56435,15760,124,-4292,6824,-1165,-6311
56457,19208,7900,-2980,3938,2157,-5363
56479,19552,4044,-2308,-3130,1860,-1101
56501,21572,-4000,-2160,-2870,5242,917
56523,16924,-4252,-412,2486,3096,-3724
56544,23736,-2544,-1324,2754,-449,-6526
56566,25924,-7028,-2264,2436,6111,-3594
56589,20856,-3960,-708,9057,7079,-3464
56610,23516,160,-1196,6495,5000,-5475
56633,24504,-908,-3064,4989,8162,-3186
56654,25316,4136,-1384,5981,9796,-1183
56677,23056,1580,-108,-3506,19271,6518
56697,7500,-14380,412,926,16766,4518
56721,12308,-9840,-1288,20279,-1757,-10768
56743,28656,9076,-552,20326,4134,-2513
56764,21112,5596,2048,2788,17748,14668
56787,5252,-10344,2464,7520,9882,7504
56809,14696,-6672,-512,18072,-9449,-14310
56831,32767,1752,-2912,18431,-1023,-12070
56852,28812,6564,-1556,10803,15395,3393
56874,16080,-88,912,7866,16906,8654
56895,8948,-544,3424,12406,9629,1624
56919,12088,788,3444,10231,2665,-4032
56941,13980,-2180,616,11145,1027,-2865
56962,15284,4764,488,12786,715,-5852
56984,15692,5888,448,4317,4004,-2819
57007,13976,-4648,-1092,1084,4825,-2493
57029,13484,-5352,-3588,17291,4903,-4115
57051,15956,13244,-1404,19970,5996,-4825
57073,14292,13912,592,7140,14213,6853
57095,3668,8888,1924,7818,12269,10476
57115,3632,14104,2564,5204,2143,5750
57139,13580,4352,1468,-7421,-243,5225
57161,17540,-11532,-360,7647,9024,4793
57183,11644,18744,2496,18876,4666,-5469
57205,16420,20236,3924,-10015,12216,7061
57227,656,-972,4224,-6899,11780,11419
57248,1772,5540,5596,5810,-6019,-1745
57271,14536,15520,2892,-2844,-10092,-4428
57293,25136,1112,-1000,-11671,-354,-93
57315,19940,-5960,-216,1341,9990,2132
57337,12812,3532,3812,8035,11760,4153
57358,6592,6480,4968,4346,9025,2419
57381,8408,3984,5208,3095,385,-5016
57403,15324,11772,5704,2048,57,-10786
57425,13848,6752,5212,-10765,2543,-351
57447,14248,-4224,3060,-1954,588,3647
57469,16528,4796,3692,3307,-1323,2133
57491,16660,5164,4524,-3188,5826,5386
57512,9616,3560,5060,-5307,1907,1274
57534,13136,320,4984,-5613,1094,-1046
57556,12012,-352,5536,-4629,-107,-2328
57579,14524,-1740,4992,-2143,-300,75
57600,13628,400,5276,275,1598,4605
57621,10224,3440,5888,-2721,1354,4633
57644,9264,-404,5252,-7232,421,3429
57665,6772,-5560,4248,-4661,-1426,1290
57688,7376,-1124,3988,-30,-4693,-477
57711,11372,904,5168,-4757,-3372,3285
57732,5668,-7192,6104,-4621,875,10811
57754,-1580,-4068,7368,4965,-3866,936
57777,1320,832,4968,-3161,-13463,-11259
57799,8788,-9764,1640,-5394,-13908,-9374
57821,13780,-11712,1200,7708,-11592,-12305
57843,6992,-656,2848,6457,-8422,-8314
57865,5212,-4172,724,5656,-9929,-9301
57886,7904,-3044,-676,9782,-16206,-12446
57909,14712,-2516,-1060,12949,-10773,-3467
57931,7872,5556,-4772,16578,-14614,-16934
57952,23832,19072,-11060,13258,-29590,-30251
57975,32767,17484,-15028,4500,-14958,-10746
57996,32767,13228,-10868,14158,16691,21211
58019,14556,23024,-4340,7799,12516,11994
58041,22944,14020,-5748,-853,-2190,-7235
58063,31300,15572,-8120,3756,1550,1552
58085,32360,15148,-9572,644,8350,10419
58106,21256,14576,-5652,-493,14247,7647
58129,18916,11816,-2392,-9778,7261,4095
58151,17352,-2064,-2172,-9178,9264,11001
58173,11580,-1000,-1056,-2618,2608,4055
58195,19168,-1176,-2412,-2721,-837,-846
58217,20116,-688,-1936,1019,4099,1156
58239,13472,1796,748,2073,4908,2622
58260,10832,148,668,2977,553,51
58283,16384,3868,-584,5569,-2916,-4858
58304,23256,5584,-2516,612,353,-2832
58326,18688,1992,-1952,-302,7900,5013
58348,12288,2136,184,2455,4771,1217
58370,14112,5724,764,2459,326,-2339
58392,15292,5928,-1348,-141,-1066,108
58413,21584,5320,-3048,-166,1369,-96
58437,18408,4000,-2276,-1074,6133,1410
58458,13300,5696,-1340,1055,4422,-706
58480,15228,8352,-2568,-230,103,-3278
58502,19640,11184,-3896,-1040,2197,-2633
58525,17760,11500,-4108,-5961,3463,-1530
58547,16316,10068,-4132,-4583,4606,-634
58570,16172,15340,-5784,-4108,1499,-4312
58591,24992,16360,-7292,-10411,5129,-1615
58613,15944,13032,-5236,-11883,17536,1931
58635,2312,15140,-2908,-13233,10963,-3841
58657,12204,10272,-5564,-15231,-1977,-9683
58679,16796,15564,-4988,-14082,5910,-2694
58701,11444,8252,-4736,-22249,7821,-2169
58723,5656,5592,-3900,-12823,3708,-6368
58745,9944,15268,-3412,-15079,-5585,-6594
58765,11632,8032,-1840,-24984,469,2334
58788,5152,-2332,-3360,-21961,-7371,4054
58811,15372,-4640,-3308,-12623,-7151,1745
58833,2524,-2912,1512,-19214,-10420,-2401
58855,24124,-10892,-2380,-23741,-32768,-4705
58877,32767,-29004,-8120,-14506,-8182,3201
58899,8576,3480,7684,-381,24584,16714
58921,-5324,-23036,6804,-32768,-17808,9977
58943,32767,-32768,-7960,1578,-32222,-22767
58963,32767,3704,1840,32767,29527,8369
58987,-18364,32767,10296,2520,18383,6212
59009,11140,164,-3940,-32768,-32768,-12202
59030,32767,-23788,-5732,-3224,-9179,-3134
59053,25772,1228,2176,5825,18528,7698
59075,11716,-10444,1584,-5002,13039,2307
59096,1008,-1240,1768,19474,1593,-4486
59119,20736,15660,420,2883,-13628,-10426
59141,31244,-2360,-692,-6080,9199,4889
59162,6880,-1340,1212,7538,10695,1397
59185,6004,11456,1564,5810,-6267,-5208
59207,24868,5164,-1992,-2762,-7696,-4539
59228,22832,2844,-480,1028,5992,3533
59250,15432,548,1100,-3310,2380,47
59273,18684,-4892,-1772,4839,1808,-2341
59295,14056,10292,648,7512,2665,-1767
59317,17608,5352,620,-5562,996,-339
59338,16932,-4724,-384,891,2211,358
59360,16792,5252,-208,8556,1975,-4157
59383,12572,12520,1636,-1077,2976,803
59404,13684,-376,184,-4688,-1110,1224
59427,22648,-2628,-1012,4373,-3085,-4387
59448,24040,4928,1216,1548,3472,8
59471,21300,-2544,1856,-1826,4317,1050
59492,23648,-4376,2048,5206,2889,-1750
59514,24028,-584,2964,3884,4869,-552
59537,25164,-8288,2396,545,4306,-3314
59558,21932,-9444,4224,14054,8285,-1879
59580,24504,-592,3824,14750,136,-11711
59602,32212,1728,1956,14079,5906,-6803
59625,27072,2360,1700,12302,11501,3038
59647,26012,-2768,1124,11707,8828,-4196
59669,20204,1264,1152,16956,8859,-4868
59690,18540,7412,176,14990,1567,-3829
59712,25964,5736,-2876,10804,601,1611
59735,27616,-3160,-6876,12385,7646,7431
59757,16836,1840,-6044,20921,11917,4137
59779,12208,9120,-4988,14873,5896,-543
59801,13848,6752,-4628,13157,4820,1343
59823,14856,18268,-5348,19518,2821,702
59845,14500,28540,-5276,1444,7692,11607
59867,7548,14572,-5368,-16467,10515,15987
59888,7544,-5696,-2216,-9641,6490,13528
59911,7392,-6428,-1140,14601,7583,17805
59933,6288,9600,-1408,28308,8809,16740
59955,-2848,32767,4208,13839,15532,-2397
59977,-2304,14772,3860,-25347,-4398,-12712
59999,19916,-14480,-876,1687,1808,2487
60020,524,16544,1976,22623,11748,7560
60043,4168,22652,2436,-7240,-1068,-9607
60065,12836,3544,1148,-13885,2154,-2756
60087,12004,-1364,364,-3280,2190,2624
60109,12912,4476,1744,-3700,4378,1224
60131,13468,280,1400,-10434,3564,-5304
60152,17628,-5424,740,-4615,3788,-5018
60174,19248,96,812,2633,5498,594
60196,17996,2324,2224,458,10588,6743
60218,8948,3532,5776,-3712,8901,1710
60241,13436,-1028,5948,-6261,1143,-4127
60262,14928,-2560,5700,-2638,4761,2396
60284,10556,-636,5696,-1679,673,424
60306,16676,-3156,4996,-2044,-255,-38
60329,11716,-2372,5412,575,2942,3688
60350,11776,-2572,4612,191,-60,4125
60372,9940,-5556,3432,2717,3404,8189
60394,6056,-3232,3284,4005,2233,6669
60417,3672,-2548,4656,-1212,3564,244
60438,-2988,-9676,3472,141,1238,1122
60461,-3024,-8684,1620,11249,-8768,1622
60483,3036,3000,4248,13254,-10757,4020
60504,-1456,3100,6240,3941,-6115,5315
60527,-3328,1208,3472,3007,-17456,-6810
60549,11652,-900,384,2817,-19512,-6484
60571,12076,-4740,1188,2671,-13677,4804
60593,10800,-5160,-192,11402,-16946,3158
60615,15852,2400,-3504,12560,-19466,-3717
60637,23576,5760,-6752,5952,-22818,-15697
60658,32767,3768,-8180,5815,-18345,-10469
60681,32767,3456,-8840,13937,-4351,14592
60703,22136,8276,-9588,14629,-4590,8952
60724,32288,10192,-12928,10319,-15357,-10519
60747,32767,12284,-13980,2535,-2338,1024
60769,31932,676,-14232,1631,7712,17084
60791,22108,-1840,-9932,8262,8606,11730
60812,14132,180,-6392,7391,105,540
60835,22260,5060,-10000,11363,-9842,-10101
60857,32767,10856,-10724,-5272,-626,1675
60879,22028,-7920,-11368,237,10248,9076
60901,15408,7164,-7000,11547,1891,-2369
60923,18900,10240,-6228,-4005,2092,156
60945,21068,-5672,-9632,-2867,1608,-3502
60967,24560,3032,-8424,7866,5277,-6533
60988,18228,9920,-5492,-2153,10505,-1362
61011,12576,2820,-5884,-5278,6852,-3395
61033,17424,5316,-6864,-2836,2363,-10350
61055,16932,6216,-7476,-4672,8176,-6433
61076,14192,7420,-7284,-3681,6703,-7832
61098,14144,13516,-7556,-3177,5660,-9220
61121,16628,17344,-8944,-6978,9662,-5940
61142,7540,23664,-8840,-9473,11657,-4195
61165,5348,20836,-9324,-23533,5482,-3260
61187,5620,8292,-10676,-28341,1060,-1423
61209,12128,512,-10688,-19909,-2292,-2929
61231,8088,11056,-7240,-13536,-62,-3909
61253,15724,8088,-9268,-24005,-5892,-7835
61275,20652,7036,-8256,-15671,-2686,4302
61296,27480,25320,-7276,-32768,6330,13962
61319,6672,-29944,-12556,-32768,21213,25380
61341,-5152,-32768,-2688,-7332,-5832,-12054
61363,24936,9144,2872,-836,-23948,-19971
61385,29076,-15200,-3304,-32768,10392,21929
61407,-3836,-23628,136,-4276,-5835,-2192
61429,32767,-2824,-1864,-6565,-21397,-10388
61451,29460,-10880,64,-15573,13307,17680
61472,5252,-19104,3108,-7777,-20,4176
61495,17320,-10012,-4,8797,-10045,-6245
61517,26680,10140,-860,1188,-6993,-2622
61539,27084,-3836,-1920,-9948,8824,10062
61560,13760,-10560,276,1761,3156,391
61583,24228,-1548,236,5391,-1797,-5840
61604,22172,-1832,636,945,7043,2257
61627,15556,-5404,-396,5667,1362,-3981
61648,23472,1296,-1060,10300,-964,-8012
61670,25372,3964,-844,5716,5250,-3632
61692,18204,-4,240,4640,8742,-648
61714,14812,-172,592,8072,3129,-6065
61737,23612,1676,-608,9415,-1440,-10740
61759,32364,3564,-1148,7288,5842,-6598
61779,24084,780,1956,4630,12246,35
61803,24184,-4996,1224,7044,5520,-6372
61825,31292,-1548,-500,10016,3248,-11849
61847,32767,6604,1856,12030,4278,-9476
61868,32767,6808,1856,3653,8943,1207
61892,23212,-3332,1640,12045,25169,23925
61912,5336,4608,-712,16980,1403,19524
61935,23028,7776,-10704,5505,-6605,15086
61956,32767,-11048,-15944,-21079,13340,2588
61979,21624,-29800,-19348,25441,32767,11855
62001,-3912,18780,-7988,32767,32767,1598
62023,-6604,26244,2944,14038,26583,8564
62045,-13512,9952,2100,11769,9394,8470
62066,1700,16912,-616,18764,-8131,-5424
62088,11816,30956,1332,768,1802,-5406
62110,3720,11300,2616,-16476,6950,767
62132,1952,352,3044,160,780,2938
62154,5700,5736,2440,8978,1080,12430
62175,1804,11092,3832,11005,1709,6231
62198,948,20604,5296,51,-4822,-5007
62220,12100,9752,2524,-13509,-4958,-3018
62242,9252,-3832,1996,-5665,2112,9299
62264,10896,-56,2592,689,-5003,261
62286,16072,2524,1688,3215,2683,3565
62309,12380,11168,2476,-5226,3499,-484
62331,12808,-1588,2780,-12185,2380,626
62351,15684,-6984,3284,-493,493,3210
62374,16420,676,4148,1666,1533,5847
62395,14856,-4096,5332,-1621,5724,4208
62419,11672,-1872,6520,4670,-1704,-7634
62440,19260,8708,6448,425,-3961,-3324
62462,19436,2612,5000,-5912,76,7048
62485,16860,-284,4484,-2012,-3809,3306
62505,22216,-1652,4364,-4152,-911,499
62529,15860,-3564,4476,-642,1549,403
62550,17912,-1072,3892,2949,-1626,-1175
62572,18404,2544,4412,1428,1500,2814
62594,13724,468,5540,-1760,4711,5545
62615,5324,-768,6924,-3026,2440,1770
62639,6616,-3532,5868,-4318,-5694,-5663
62660,12688,-8328,2892,-3691,-5752,804
62682,10192,-9520,2916,1846,130,5552
62704,1512,-4928,3896,812,978,-2619
62727,-2400,-6844,1696,-2140,-6467,-12383
62749,4900,-9992,1376,1582,-11925,-7939
62770,3980,-11372,2356,10131,-4616,188
62792,-4952,-4748,2584,15574,-10303,-6140
62815,-388,-324,380,17766,-15730,-9153
62836,-64,4308,-1972,16991,-18008,-2946
62859,96,8116,-3224,12470,-24642,-13063
62881,19264,3904,-10576,9737,-32768,-21606
62903,32767,5280,-15924,20003,-21678,-1813
62925,28164,17620,-9840,18224,5200,15983
62946,17072,12316,-10048,6105,-12599,3193
62969,32767,8884,-15328,15742,-10024,2591
62991,32767,19508,-14592,5151,1271,11059
63012,29696,2164,-13740,-5659,5759,16657
63035,22180,-7456,-11604,2939,3062,12949
63056,24500,-3344,-13156,11891,-406,2190
63079,29464,10880,-14288,10900,-2004,-3983
63101,32436,9896,-12284,-4001,12216,5213
63123,12032,-2376,-9272,-166,13377,8941
63144,15336,2324,-8068,7999,-1717,-15
63165,21488,6856,-6796,1909,3618,3271
63188,16772,-1268,-6492,-2270,5876,1101
63211,16828,-5568,-6412,4828,3545,-2235
63231,15012,184,-5188,8866,3663,-504
63255,15836,10344,-4424,5552,-121,-4728
63276,21968,5608,-5156,-13301,3286,-424
63299,17424,-11168,-5804,-4150,9517,4245
63319,12468,404,-2936,6335,4295,-1313
63342,14788,3740,-1812,-1302,4398,-789
63365,10400,-692,-2252,-256,2577,-1189
63387,14824,4600,-3172,893,-2949,-4255
63409,17276,2312,-4452,-5484,2278,4263
63430,12360,-2868,-5336,-1561,1461,2090
63453,15452,2244,-5328,774,-1633,-2028
63474,16252,5220,-6640,-1806,92,162
63495,18412,8316,-7556,-4363,394,1593
63519,17852,5172,-10168,-8674,3953,3849
63541,17152,5088,-11516,-4965,3277,-1821
63562,18068,15184,-10904,-5115,3750,-2157
63585,18412,20152,-11484,-16925,8606,4513
63607,14432,10252,-11656,-21341,11420,6996
63629,13404,11892,-10128,-20446,8351,6219
63650,16480,7196,-11316,-26998,10856,8745
63673,15328,4428,-11012,-24744,10948,3544
63695,15900,2680,-7328,-29888,14841,8976
63717,11636,-8636,-5784,-30168,14100,14938
63739,11164,-16200,-2844,-22405,14860,7167
63760,1236,-9272,2816,-20534,10091,832
63782,5976,-24008,2056,-29749,-4051,1352
63805,19976,-32768,-3312,-8521,-6380,-7497
63825,20212,-13120,104,4047,643,-3885
63848,17968,-6392,1796,-4021,940,5071
63870,16760,-13360,464,-6168,1040,6333
63893,18080,-15112,-2104,-988,-2946,-1642
63915,24788,-10992,-2028,5737,964,-2876
63935,19428,-392,764,3456,5874,2958
63958,15888,-5484,1180,-2519,5788,4655
63980,12276,-9408,368,2171,587,-2185
64003,24368,-7428,-1720,6572,-3283,-7654
64024,23204,-852,-476,6421,6814,1170
64046,17392,-3072,-12,960,5179,1056
64068,17708,-6368,-84,4332,2669,-1658
64090,20936,-3828,56,4665,1160,-3483
64112,22292,-5256,-220,5657,5550,-3442
64134,17624,-1196,740,7406,3923,-3666
64156,24056,-1764,188,5826,2573,-1326
64178,21192,-580,1472,5632,8760,1609
64200,14172,-752,2976,2940,6455,-3908
64223,18776,-4284,2032,2326,-2627,-5063
64244,31356,-8708,872,8024,3776,3572
64266,21080,-5772,1268,9097,11714,-3672
64289,16660,-4600,-588,9568,4660,-17444
64310,26900,2700,-2816,13093,3918,-17199
64333,26136,5136,-684,7545,14942,-2687
64354,10868,2344,908,8911,18252,1547
64376,3196,8232,2384,6934,6392,-8608
64397,10844,5268,280,-85,-1626,-11246
64420,15528,436,-932,1587,2310,-4724
64443,16004,-2472,-1904,4876,7144,-4583
64465,12908,-1716,-2320,12034,13732,-7451
64485,7688,7440,32,13348,13910,-9661
64508,6556,10672,2624,8360,12598,-7937
64530,4740,12588,3868,4500,10022,-5618
64552,5520,9992,3348,-330,5186,-4717
64575,10280,5996,3668,-739,2965,-2076
64595,12144,3332,5184,1354,6756,1292
64618,6540,5604,5604,4542,5802,-770
64640,7912,12540,5900,572,146,-4397
64662,12508,4864,4784,-6317,-131,-63
64684,15636,-468,4272,1170,1071,338
64705,12056,5284,5180,3516,4231,1078
64728,9348,5380,5452,395,219,-2709
64751,14284,6272,5236,2631,-2812,-3604
64772,17728,7876,4876,425,-1224,833
64794,16644,5768,3872,246,2460,700
64815,14692,7044,4260,-403,1011,-3034
64838,17508,5024,4604,-166,1900,-1017
64860,15472,6972,4812,2517,2327,1164
64882,14104,9884,5380,-80,2426,1376
64904,13316,7164,5572,-3788,774,-520
64925,14120,4040,5588,-2283,690,885
64948,13440,5128,5496,-81,639,2491
64970,11884,5740,5404,-2005,99,3937
64992,11364,2244,5668,-4191,465,3248
65014,8976,-1408,5704,-2042,-62,3441
65035,7564,-1784,4544,-8,-2465,4555
65058,7276,-5764,3412,-2301,-1720,3896
65081,3420,-9908,2096,1995,-3349,2269
65102,6508,-11628,1932,2822,-7137,745
65125,3328,-17436,716,10699,-2270,3918
65147,-1864,-9512,-624,22939,-9708,-3935
65169,5972,2052,1564,20355,-12930,-2967
65191,7384,-1660,1388,14006,-9687,2560
65213,6912,-900,-3284,26893,-13899,-1000
65235,17784,12216,-6508,25277,-21480,797
65256,22236,10096,-10536,20567,-13781,2429
65279,28092,25160,-15896,28461,-23920,-8741
65301,32767,32767,-16304,10500,-12714,4633
65323,32767,20244,-10996,-6746,17286,32767
65345,13844,4620,-7328,-2553,1563,14684
65367,28164,8036,-8224,3357,-6796,-441
65388,32767,10620,-9168,-4034,2134,3485
65410,23960,4316,-7432,-4887,11566,11426
65431,15156,3360,-4240,-2010,6921,6486
65454,16764,3708,-3044,-1758,3468,3511
65476,15872,3616,-2776,-3894,3751,2398
65499,16232,-2536,-3088,-5620,3210,1195
65520,15364,-3408,-3040,1923,3368,208
65542,14664,2984,-2104,1792,1865,-742
65564,15152,2580,-1896,-1147,2436,363
65585,13032,976,-2712,-318,596,-434
65609,17548,1748,-3552,124,-1058,-3258
65630,19428,2412,-4316,699,1691,-1505
65652,17704,6856,-3988,1266,4480,1438
65675,14068,7952,-3312,-4397,5326,1723
65697,11880,4316,-4068,-4771,1249,-808
65719,17740,6332,-5708,-2039,-1085,-2851
65741,19756,11964,-6980,-3420,2790,-1541
65763,17708,13200,-5984,-11802,6808,2572
65785,13260,7652,-5444,-11906,7411,3498
65807,11864,10356,-5228,-10894,2813,1471
65829,16240,9664,-6108,-15291,3088,3586
65851,15812,6808,-7256,-14378,6485,2676
65873,13324,13992,-6624,-11925,4714,-1903
65895,13848,20084,-4780,-22862,4590,2655
65917,13284,6312,-4888,-32768,6317,11896
65939,6720,-4852,-4172,-30071,4471,12659
65961,9096,-11224,-3820,-25397,-1357,7694
65983,11796,-14020,-2120,-24621,-7454,11210
66004,22992,-23968,-2968,-21917,-5806,7900
66027,21108,-27296,-1104,-8860,5492,9708
66049,10988,-17608,1476,-279,1849,2070
66071,17504,-15308,-64,-2047,-5826,-4133
66093,24420,-15392,-2488,2304,-2913,-5074
66114,23780,-7440,-1716,6886,2652,-3532
66136,18996,-2608,-656,5825,4920,-965
66158,16192,1260,36,4805,3615,-537
66180,17844,812,-344,2857,3227,-461
66201,16396,-504,-492,975,3192,223
66225,17512,-2624,-1088,4424,2688,-1388
66246,19048,2660,-1024,5225,1615,-3636
66267,20192,4260,-572,2357,3781,-1640
