timestamp,ax,ay,az,gx,gy,gz
98,18252,3940,-17780,32767,3025,-6274
120,15472,4052,-10916,32767,6837,-727
141,10720,5040,-3976,32767,12809,3772
164,5656,2532,4364,32767,14744,7251
187,2884,-2532,13624,32767,12214,10174
208,6160,-432,16908,32280,17594,12957
232,1668,-6064,32767,25288,32767,18214
253,-5976,-8020,32767,2929,24778,22642
276,-8000,-2776,32767,-16224,13638,26026
297,-11076,3048,28844,-26806,16354,26996
320,-15604,8332,20500,-32768,20397,25820
342,-22248,11736,9912,-32768,12669,22391
363,-23428,15456,-2284,-32768,1550,17817
386,-23476,15004,-8644,-32768,9533,13738
408,-32608,15376,-17164,-32768,-778,8809
430,-32768,19228,-26896,-32768,-16754,3701
452,-32768,16184,-32244,-32768,-18323,-2238
474,-32768,14148,-32768,-32768,-3848,-11023
496,-32768,13676,-32768,-27181,-414,-21657
518,-32148,11344,-32768,-17616,4239,-30518
540,-22092,9144,-32768,-6484,7842,-32768
562,-11344,6912,-32768,6282,14825,-32768
580,-176,5744,-32768,18200,22366,-32768
606,5532,3240,-29920,24466,17992,-32768
628,9008,3400,-26016,26817,8071,-30606
648,13796,2168,-22496,29514,5816,-25842
673,15784,1260,-17468,32767,13477,-20145
695,14076,1148,-11528,32767,22620,-13869
715,11588,844,-5388,32767,22757,-8065
737,12456,-776,-244,32767,16324,-2847
759,15080,-2516,2020,32434,12959,1832
782,14256,-2708,6824,32767,30009,6732
804,9988,-5892,18644,29989,32767,13159
826,8736,-8168,27000,17381,32767,20522
848,2252,-7324,31864,2285,29450,27555
871,-8308,-3360,30512,-15186,15139,32181
892,-14320,1104,24512,-27953,4912,32767
914,-17584,5596,18780,-32768,9986,31021
936,-19540,10456,14364,-32768,18174,25941
958,-25764,14924,5756,-32768,11904,20959
980,-31324,21056,-8800,-32768,-18402,17668
1003,-32768,22592,-20328,-32768,-15024,12962
1024,-32768,18236,-25236,-32768,2080,3301
1046,-32768,15644,-30904,-32768,5421,-9697
1068,-32768,15892,-32768,-32768,-96,-20764
1090,-27976,13980,-32768,-28094,-3035,-28574
1112,-20148,12312,-32768,-22167,-4510,-32768
1134,-13744,9276,-32768,-12269,1330,-32768
1156,-8772,7280,-32768,-46,11347,-32768
1179,-3556,7296,-32768,9707,16568,-32768
1197,5544,5540,-29696,15339,14531,-32768
1219,13112,1240,-27672,20366,14060,-32768
1244,16368,-1112,-23900,25327,14779,-27615
1266,20312,-5404,-19720,27613,9645,-19905
1287,23124,-4868,-16400,30402,12555,-12192
1310,21788,-3716,-13320,32767,27407,-4613
1332,15556,-2140,-6028,32767,32169,3256
1355,13264,-4124,-2424,28714,15804,9412
1376,13116,-3420,-1032,27019,15486,14029
1396,10556,-4496,3284,26557,24267,18453
1420,9192,-6972,10128,22516,27176,23750
1435,9400,-7436,14800,12406,15609,30167
1463,6528,-4580,15556,3213,12353,32767
1484,-860,-92,15148,-5015,8523,32767
1508,-7964,2944,17600,-12058,7622,32767
1530,-16752,5604,16856,-19752,13416,32767
1552,-26732,10580,12288,-27687,16470,32767
1574,-32768,14348,7364,-32768,16958,28132
1596,-32768,15604,2772,-32768,23850,17718
1617,-32768,19232,-6436,-32768,2706,5491
1640,-32768,17352,-16512,-32768,-3252,-4295
1662,-32768,15248,-21344,-32768,2123,-12276
1680,-30036,14568,-25052,-32768,3634,-18748
1706,-27836,13992,-30572,-32768,-4494,-23388
1729,-24432,12580,-32768,-29943,-9911,-27497
1749,-17472,8368,-32768,-18364,-1903,-31436
1771,-11336,6160,-32768,-2677,12315,-32768
1794,-6336,5432,-32768,8890,17114,-32768
1816,796,3920,-32768,15910,15278,-32768
1838,10076,928,-32768,22400,14371,-31538
1860,15472,-828,-30432,28937,15203,-24888
1880,14420,-216,-22672,32767,13947,-17428
1904,11716,-956,-17668,32767,5595,-11080
1925,9956,528,-15620,32767,-1288,-6976
1947,8160,1092,-10588,32767,2498,-4659
1970,6396,732,-3980,32767,11410,-3352
1992,4876,24,2128,32767,22412,-1558
2012,5440,-4084,8700,32767,24531,2171
2035,8056,-7044,13312,30410,24482,6887
2057,8984,-8732,19428,24739,32767,13346
2080,5716,-10572,26800,13139,28804,20984
2101,2272,-8496,27168,-1781,13211,27949
2124,-4576,-3072,25024,-12115,11807,32662
2145,-13292,188,24584,-20812,15744,32765
2169,-20224,4292,20404,-31071,11737,30474
2190,-24900,9116,12028,-32768,9620,25855
2212,-25500,12816,6780,-32768,14955,19087
2235,-27952,13600,4084,-32768,24289,12041
2257,-32768,19676,-4388,-32768,-5943,5033
2279,-32768,21292,-20676,-32768,-24231,1005
2298,-32768,18840,-28100,-32768,-17809,-4753
2322,-32768,16972,-32124,-32768,148,-13218
2335,-32768,16164,-32768,-30128,7179,-23066
2366,-27164,13764,-32768,-20690,11423,-31135
2388,-18388,11072,-32768,-12315,10388,-32768
2410,-8244,6924,-32768,-2548,9122,-32768
2432,2088,3532,-32768,9118,13102,-32768
2446,8172,3048,-32768,19704,19206,-32768
2476,10320,1216,-27136,24757,16621,-29024
2498,14612,-208,-23756,27131,11164,-23441
2520,20484,-3436,-21212,29045,9003,-16716
2542,21084,-3536,-16768,32767,20456,-9315
2563,15844,-776,-8764,32767,32767,-1900
2585,12176,-2644,212,32078,24848,5270
2606,14944,-4808,2988,24876,7262,11033
2630,14600,-4076,4256,24334,19497,16590
2646,9160,-4112,9736,21925,32767,22090
2673,5672,-4764,16280,9807,19425,27908
2695,4580,-2612,17904,-1292,6095,32767
2718,-2872,176,19536,-8898,9672,32767
2740,-12452,3008,20392,-18775,6998,32767
2762,-22304,7000,16776,-29596,-3091,32767
2784,-32708,11812,8708,-32768,-2988,32767
2806,-32768,15044,3800,-32768,7769,26112
2827,-32768,17224,1312,-32768,20139,14997
2850,-32768,19952,-6832,-32768,-586,3654
2873,-32768,22460,-21320,-32768,-12959,-4870
2894,-32768,20460,-32768,-32768,-11189,-13235
2916,-32768,17564,-32768,-32768,-1855,-21889
2938,-27976,12544,-32768,-20147,8244,-29985
2958,-16488,8192,-32768,-5053,18695,-32768
2980,-8048,5840,-32768,7581,21927,-32768
3003,72,4032,-32768,16670,19918,-32768
3027,6148,3384,-32768,24495,18191,-32158
3048,9528,2516,-30280,30415,15069,-27167
3070,11424,2492,-25020,32767,13617,-21804
3092,10752,3036,-19976,32767,14576,-16355
3115,9756,2840,-15484,32767,15375,-12140
3135,10252,5516,-8168,32767,16845,-8160
3158,10476,4652,-888,32767,15697,-3869
3179,9676,764,7164,32767,11744,17
3202,11056,-5648,14908,32767,6687,4111
3225,14556,-10276,22388,27602,20019,10660
3246,11536,-10460,31352,15938,25405,18238
3268,7028,-8452,32576,947,20588,24877
3290,2596,-5068,28032,-12048,10840,29830
3307,-2508,-72,20744,-21037,8264,32767
3334,-10440,4372,14696,-27240,5165,32767
3357,-16048,6364,10100,-30952,1673,32555
3379,-21532,7024,7692,-32768,4539,30279
3399,-28136,8924,4940,-32768,9419,26543
3422,-32768,12100,-208,-32768,1925,21175
3444,-32768,14384,-7960,-32768,-1614,14152
3467,-32768,14908,-14868,-32768,-3664,4933
3488,-32768,16020,-18848,-32768,-1625,-3868
3510,-32768,14316,-22748,-32768,7824,-11608
3532,-32496,16112,-29316,-32589,4901,-19024
3554,-27516,14772,-32768,-27794,47,-24950
3577,-20120,11664,-32768,-19089,3638,-29613
3598,-12728,8172,-32768,-6547,15507,-32768
3620,-6428,5028,-32768,5515,23696,-32768
3641,408,4108,-32768,14391,23917,-32768
3657,8696,1384,-29196,18383,13456,-31673
3686,15520,-648,-26996,22075,8422,-25874
3708,18084,-2060,-24312,28386,16709,-18985
3730,18228,-1824,-17888,32743,21777,-11904
3752,19064,-1356,-12324,32767,21278,-4410
3768,17924,-2120,-7208,32452,16781,2608
3797,15552,-2264,-3056,31169,17698,8541
3819,11756,-3636,2068,29051,21114,13358
3837,9888,-4880,6988,24726,23113,17977
3861,9640,-5348,13208,17944,24515,23225
3883,6808,-6972,18240,8325,25221,29210
3907,-1740,-3604,19524,-4774,17857,32767
3929,-10956,1348,17984,-16328,6069,32767
3950,-20592,4452,15340,-24686,2312,32767
3972,-30720,8200,8628,-30931,4453,32767
3994,-32768,11640,1028,-32768,14244,24470
4017,-32768,11968,-2116,-32768,24362,12510
4036,-32768,14020,-10516,-32768,11589,355
4058,-32768,15296,-21324,-32768,-710,-8579
4082,-29792,14648,-28396,-32768,-5045,-14471
4105,-27372,13076,-32768,-32768,-10056,-18644
4125,-25572,11248,-32768,-30134,-16599,-22107
4140,-22308,10412,-32768,-22959,-13128,-26004
4170,-17472,9084,-32768,-12701,-2216,-30447
4192,-12052,6928,-32768,-1937,5491,-32768
4214,-7392,6040,-32768,8071,6182,-32768
4235,128,6396,-32768,17409,7170,-32768
4257,7888,5112,-32768,26766,14546,-32619
4280,13192,2764,-26360,31547,13175,-26996
4302,15120,2544,-20600,32767,9010,-20495
4324,16836,1116,-14580,32767,11552,-14174
4346,15796,-368,-10032,32767,17612,-7716
4367,12280,160,-5648,32767,25665,-1800
4389,8852,268,1068,32767,25632,3729
4407,10156,-2384,7080,32498,13337,9246
4434,11692,-4688,10672,28510,14746,14577
4456,7948,-5860,18520,24743,31643,20706
4479,1648,-7848,28084,10784,23558,26000
4500,-660,-5896,29808,-5109,10259,30118
4522,-5680,-1604,26872,-16725,14031,32437
4544,-13892,2912,21524,-27442,10833,32685
4566,-20000,7736,12180,-32768,2301,31336
4588,-27004,10728,5544,-32768,-1798,28512
4608,-32032,12200,-432,-32768,2346,23373
4630,-32768,10364,-4088,-32768,4213,15796
4653,-32768,12572,-9264,-32768,46,8136
4675,-32768,14024,-13216,-32768,-5944,890
4699,-32768,12772,-18304,-32768,-9357,-5325
4719,-31620,12508,-23948,-32768,-10576,-10273
4742,-29880,11908,-28604,-32613,-10725,-14466
4757,-27472,11016,-31368,-26986,-8928,-19062
4786,-23948,9368,-32768,-19151,-1409,-23675
4808,-19732,7700,-32768,-10232,5962,-27623
4831,-15840,6200,-32768,-1022,8806,-30425
4852,-10240,5188,-32768,7762,9745,-31894
4874,-4860,4448,-32768,17391,15500,-32378
4896,292,4384,-28744,25658,20080,-31288
4919,5824,3808,-24672,31036,19613,-28291
4940,11020,3376,-18608,32767,22478,-23568
4963,14872,1456,-11692,32767,24214,-16523
4984,14248,-1464,-4496,32767,26083,-8707
5004,12960,-3848,-912,32767,30192,-1627
5022,11180,-5076,3728,32767,32767,5342
5051,9916,-5856,11656,29774,32767,12866
5071,8192,-8132,19664,19170,29982,20613
5092,6828,-6364,22832,7310,22350,27613
5116,1008,-2416,24348,-4300,18056,32767
5137,-6960,1116,23404,-16520,7234,32767
5160,-13692,4928,19524,-25336,3021,32767
5182,-21600,9252,15280,-30952,7672,32767
5204,-30288,12984,10732,-32768,7591,31414
5226,-32768,16332,6188,-32768,3479,24554
5248,-32768,19784,236,-32768,2457,15969
5270,-32768,24300,-7344,-32768,-1080,5763
5292,-32768,24364,-15892,-32768,-7382,-3557
5314,-32768,25036,-27388,-32768,-13979,-9759
5336,-32764,21776,-32768,-32768,-10596,-14447
5358,-32128,17648,-32768,-31698,-1350,-20269
5380,-28832,13848,-32768,-17857,8073,-27292
5402,-20652,9700,-32768,-3715,15555,-32686
5424,-10600,7264,-32768,10444,21296,-32768
5447,-3740,7312,-32768,23821,24402,-32768
5468,-924,8928,-32768,32188,18170,-32262
5490,3752,9840,-28036,32767,6105,-29464
5509,9784,7680,-22448,32767,5638,-25547
5535,11640,8228,-17552,32767,16912,-20305
5556,10148,8476,-7916,32767,29129,-14476
5577,10392,5584,2548,32767,24459,-7199
5599,12892,-104,11388,32767,8151,-518
5621,15120,-5036,17568,32767,17072,5897
5637,10500,-6228,28856,27771,32767,14431
5665,5312,-7296,32767,9759,26484,21774
5687,3164,-3924,32767,-8043,12195,28311
5710,-5456,1876,26572,-18872,12411,32474
5732,-15728,6408,19532,-25738,8344,32660
5754,-20900,8652,16672,-30657,10114,29838
5776,-28760,9768,12712,-32768,16724,25325
5798,-32768,13128,2928,-32768,4406,19279
5820,-32768,14768,-4692,-32768,3624,13076
5841,-32768,17868,-9948,-32768,8759,5328
5863,-32768,19204,-19028,-32768,-8832,-1966
5886,-32768,18936,-28372,-32768,-22075,-7098
5908,-32768,17884,-32768,-32768,-18122,-12429
5930,-32768,16304,-32768,-32335,-6560,-20027
5952,-28984,14384,-32768,-18799,6817,-28278
5975,-18688,11840,-32768,-5770,19088,-32768
5996,-10816,9476,-32768,5574,24196,-32768
6018,-3228,6788,-32768,14906,20413,-32768
6040,4176,7204,-32768,23553,16643,-32768
6062,12268,6036,-29748,31196,19996,-29889
6084,18976,3004,-20576,32767,27487,-22627
6107,20672,828,-14604,32767,32767,-12984
6125,17260,768,-8588,32767,32767,-3535
6150,13492,500,-4352,32767,32767,4176
6172,13092,-1296,1184,31977,28048,11261
6194,13524,-2580,3732,27149,27011,17847
6216,8680,-1812,6568,24107,32767,24059
6237,1100,-1684,14484,13532,27089,29619
6259,-680,-568,20016,475,4531,32767
6281,-9692,56,20644,-8285,5480,32767
6303,-22012,2888,19056,-15270,10257,32767
6327,-31324,5684,18880,-23047,9295,30400
6341,-32768,8032,15860,-32768,4014,22842
6370,-32768,10800,8628,-32768,1108,14523
6392,-32768,13880,-996,-32768,-3898,6217
6414,-32768,14568,-7228,-32768,-5686,-556
6435,-32768,16244,-15968,-32768,-14416,-5996
6458,-32768,17168,-26904,-32768,-17540,-11241
6480,-32768,17512,-32768,-32768,-21968,-16402
6502,-30264,15556,-32768,-32768,-17813,-21324
6524,-24816,12200,-32768,-21255,437,-27185
6546,-17264,7780,-32768,-2695,19125,-32497
6568,-10028,6088,-32768,13802,30804,-32768
6586,-1652,5036,-32768,24046,28752,-32768
6609,4468,6072,-30408,28260,16755,-32103
6634,8260,5496,-25068,30142,5756,-27554
6655,11596,3732,-19252,31510,693,-22835
6674,14768,1504,-13008,32767,7756,-17595
6697,12632,-116,-8160,32767,18955,-12253
6718,8340,420,-5048,32767,28169,-7316
6744,5436,-160,928,32767,26329,-2966
6765,7720,-3000,6560,29552,12510,955
6787,11540,-7580,10528,24322,8940,6010
6809,9876,-9848,17140,21241,22938,12384
6827,7184,-10828,24864,12420,24413,18477
6853,6620,-8352,26928,497,17642,24818
6876,1400,-6432,25988,-9801,16285,29822
6898,-6772,-3032,20092,-21017,6934,32767
6920,-12500,2220,12624,-27256,-735,32767
6941,-19128,4796,8572,-30430,-363,32767
6962,-28380,8444,3480,-32202,3009,32655
6985,-32768,9740,1616,-32768,5877,26769
7007,-32768,9568,8,-32768,11740,18971
7029,-32768,12524,-2080,-32768,7595,9604
7046,-32768,15660,-8428,-32768,-7361,1510
7074,-32768,18396,-15652,-32768,-15741,-3886
7096,-30912,19188,-23220,-32768,-15329,-7549
7118,-29644,19180,-32624,-32768,-16086,-10531
7140,-29684,17324,-32768,-32768,-13129,-14324
7163,-28344,12112,-32768,-20993,293,-20397
7185,-22672,8424,-32768,-4894,15110,-26868
7206,-14216,7120,-32768,9194,24443,-30636
7227,-7248,5956,-32768,19326,26370,-31222
7250,-788,5752,-29320,24844,20505,-29511
7272,4400,5996,-25096,28448,13925,-25856
7292,8480,5072,-21196,31860,12880,-21255
7316,10204,4032,-15644,32767,17871,-15787
7336,7780,2724,-10396,32767,23991,-10629
7359,5816,2956,-6040,32767,28182,-6277
7381,5540,1588,424,32767,21955,-2242
7403,9188,-1400,4156,31577,11641,1857
7418,12596,-3932,7848,30015,19239,7483
7448,11188,-6280,14344,26905,29242,15700
7469,6744,-8136,22956,18474,29788,25123
7491,-2424,-7896,32672,1893,10953,32767
7514,-10580,-3416,32532,-14336,-3231,32767
7536,-20592,2620,26128,-22762,5213,32767
7558,-29896,10964,19916,-29044,16521,32767
7581,-32768,16568,14532,-32768,9405,28044
7602,-32768,18920,8032,-32768,2842,17707
7624,-32768,20156,1352,-32768,-4499,6924
7646,-32768,22376,-9440,-32768,-6302,-1543
7668,-32020,22448,-19776,-32768,-5359,-7515
7690,-29560,19608,-30428,-32768,-2631,-11511
7713,-29592,18124,-32768,-32768,-4244,-15527
7735,-27996,13228,-32768,-26323,-572,-20688
7756,-22696,10264,-32768,-14515,8436,-26259
7777,-14644,7100,-32768,-3204,15405,-30092
7799,-7096,4864,-32768,6411,15982,-30936
7822,-348,3332,-32768,16130,18079,-29909
7842,4036,3496,-32768,25655,21215,-26974
7866,6108,3836,-27972,31710,18126,-22911
7888,9108,4112,-20984,32767,14583,-18236
7911,9872,2040,-17780,32767,15610,-13343
7929,9824,3440,-13808,32767,21716,-8625
7953,9896,2544,-6880,32767,21914,-3313
7975,11548,1620,68,32767,21847,2642
7998,13332,-1692,5912,32767,19221,9730
8020,11012,-4752,11572,28364,21555,17375
8041,7856,-3136,18556,20808,19858,24683
8057,4160,-3392,26880,8119,4816,31604
8086,380,-612,30296,-3911,-1233,32767
8108,-10928,4808,27800,-12930,3188,32767
8130,-21400,9768,23752,-20493,-3718,32767
8152,-29900,12528,20796,-25841,-2997,32767
8174,-32768,12936,17288,-30082,5304,30851
8196,-32768,13072,13928,-32768,5328,21190
8216,-32768,16348,8780,-32768,5050,11537
8238,-32768,19464,1224,-32768,-5547,2646
8262,-32768,20676,-7996,-32768,-6629,-3844
8284,-31412,21708,-14448,-32768,-5913,-8367
8306,-28808,20460,-19824,-32768,-4714,-11501
8326,-26596,19360,-27968,-32768,3089,-14886
8350,-25784,16868,-32768,-32310,9604,-19523
8372,-22060,11732,-32768,-20126,12875,-24322
8392,-14772,6744,-32768,-4383,19441,-27467
8415,-6892,4972,-32768,12012,29297,-27734
8429,-2100,3940,-32768,21953,27400,-24869
8461,1752,3132,-32768,26745,19843,-20798
8481,3476,4216,-29400,32590,19888,-17088
8503,5196,5484,-24688,32767,19255,-12979
8518,5536,4840,-18560,32767,22311,-8711
8547,5804,5552,-13004,32767,25622,-3840
8569,4728,4928,-8580,32767,27752,1468
8591,3632,4816,-3880,32767,27214,6757
8613,4852,3068,2232,32767,21115,12473
8635,4028,-400,10060,32543,12306,18328
8657,344,-2112,16592,26204,10429,22733
8680,-4624,-1240,23340,17023,6478,26270
8697,-7804,-2660,28608,6035,293,28558
8721,-12972,-848,31140,-4133,2471,30572
8745,-19992,3276,29068,-15220,-1961,31156
8768,-24304,5288,23160,-23004,-3388,29507
8790,-27664,6144,17804,-28936,-6505,26629
8812,-30596,7620,13576,-32048,-1973,22900
8832,-32768,8424,9448,-32768,808,18113
8853,-32768,9420,2500,-32768,-7791,13686
8875,-32768,11720,-3840,-32768,-8807,10368
8897,-32768,11288,-6384,-32768,-4345,5753
8919,-32768,11532,-8724,-32768,-2571,-345
8944,-32768,12472,-13264,-32768,-9347,-5636
8966,-28712,11936,-19780,-32768,-3925,-9378
8987,-26576,12124,-27416,-29358,5633,-13231
9008,-25568,10048,-32608,-19722,13136,-18077
9032,-24552,7212,-32768,-8964,18868,-23688
9046,-19752,6088,-32768,3431,25352,-29011
9076,-13232,5708,-32768,16439,32767,-32202
9098,-7348,5544,-29888,26053,32767,-32587
9120,-832,6624,-24420,32116,28888,-30557
9142,4724,6016,-19900,32767,32374,-26838
9163,6548,5052,-13600,32767,32767,-21451
9185,5756,3936,-6116,32767,32767,-14617
9207,7708,996,692,32767,29241,-7169
9229,11036,-1932,4128,32767,16780,-320
9251,10644,-4960,7228,32767,24660,6576
9274,5320,-4348,12608,32767,32767,13489
9296,1236,-4652,21440,22482,21407,19783
9318,680,-6312,28948,9886,5408,25446
9337,-6856,-8456,32767,-1585,5004,29808
9362,-15136,-5700,32767,-14346,5575,31308
9385,-17472,-228,28236,-26191,2704,30719
9407,-19484,4140,20492,-32768,-477,30008
9427,-21616,8400,12884,-32768,-2568,28955
9450,-25644,12156,8100,-32768,-6509,27944
9472,-28872,14288,3560,-32768,-7180,25809
9493,-32768,15708,448,-32768,-8342,21604
9515,-32768,18320,-3760,-32768,-8484,16374
9537,-32768,19680,-10176,-32768,-13155,10130
9557,-32768,20204,-17828,-32768,-15115,3549
9583,-32768,18536,-23428,-32768,-10174,-2962
9604,-32768,16500,-28980,-32768,-3547,-9720
9626,-31792,13380,-32768,-23385,8181,-16857
9647,-27024,10484,-32768,-11110,17562,-23811
9670,-21012,8056,-32768,1687,25819,-29494
9692,-13556,7036,-32768,13911,31995,-32768
9715,-6404,6732,-32768,24015,32767,-32768
9736,684,6860,-26908,30006,26535,-30936
9753,6280,6252,-21492,32767,26290,-26845
9780,6888,4304,-14008,32767,32767,-21522
9797,9220,1412,-6572,32767,27738,-14519
9824,13228,-1348,-4676,32767,20127,-7428
9846,11920,-2384,-4076,32767,32141,-705
9868,8324,-2748,2044,32767,32767,6601
9885,9552,-5188,8688,26975,23581,14097
9908,9396,-7984,13928,19331,18192,21475
9933,4280,-6976,19232,11302,19957,28749
9956,-3692,-4064,23900,-344,13043,32767
9977,-10708,-1356,25404,-13318,2597,32767
10000,-18984,2740,21224,-23231,3099,32767
10012,-27012,7840,13732,-30151,621,32767
10043,-32396,12324,8996,-32768,3686,31857
10066,-32768,13028,5536,-32768,5909,25345
10086,-32768,17092,924,-32768,-1475,15128
10107,-32768,15448,-3480,-32768,-13530,3649
10132,-32768,13864,-8532,-32768,-1319,-6810
10153,-32768,14244,-14920,-32768,8255,-16207
10168,-29040,15480,-21752,-32768,7805,-22701
10199,-22832,15152,-26784,-28896,6477,-27101
10219,-17956,12976,-32400,-24414,3776,-30060
10241,-11196,10040,-32768,-17991,3691,-31732
10263,-4912,5852,-32768,-7270,10494,-32227
10286,1088,3404,-32768,6951,20433,-31643
10307,6716,2008,-32768,20582,28771,-29099
10330,10184,1596,-31088,29223,28002,-24399
10352,11616,960,-24280,32767,24921,-19169
10374,12844,2504,-18516,32767,26043,-13659
10396,15080,884,-12564,32767,17339,-7274
10418,16724,-276,-8412,32767,15826,-534
10439,13836,-936,-5408,32767,23151,6165
10457,8224,-2896,788,32087,19048,12065
10482,8464,-3544,4540,26880,9795,16551
10496,6492,-4952,8772,23398,13653,20583
10527,1340,-4980,16160,17431,14526,24652
10547,-2412,-4156,22876,6977,3029,28133
10572,-7520,-4916,26016,-3220,-1208,30590
10594,-14776,-3808,26928,-12695,2808,31670
10615,-20588,736,22816,-22622,-1011,31079
10634,-23268,3616,16032,-30222,-6229,29531
10660,-26076,5200,8364,-32768,-8184,27925
10681,-29616,7544,3144,-32768,-11557,25224
10703,-32768,8264,1644,-32768,-9724,21758
10718,-32768,8936,-2080,-32768,-7957,16712
10748,-32768,10228,-6032,-32768,-7872,9430
10770,-32768,10700,-7204,-32768,-2048,2207
10792,-32768,11652,-10552,-32768,-1063,-4360
10814,-30812,12948,-18020,-32768,-8144,-9093
10836,-26544,11480,-22276,-30109,-2747,-12546
10859,-24760,10052,-25768,-23445,4837,-16208
10873,-23392,8108,-30212,-15902,10014,-20739
10902,-18456,5084,-32768,-6359,16909,-24962
10923,-12600,4632,-32768,4835,24927,-27480
10946,-7632,2956,-32768,14698,27324,-28150
10968,-2172,2724,-29372,22299,25875,-26821
10990,2264,1820,-25296,28280,25378,-23790
11012,5184,1044,-20452,32431,25334,-20051
11033,7720,468,-16356,32767,28270,-16068
11053,8068,232,-12804,32767,32767,-11401
11077,7848,1232,-7680,32767,32767,-5746
11099,8964,-472,-1120,32767,25453,521
11119,10676,-3172,2892,32767,19652,6178
11143,8696,-5340,7140,30476,28508,12688
11157,4812,-6692,16452,20909,19296,19769
11187,3576,-7372,21044,9037,7507,25483
11209,-1428,-6892,23360,496,13707,29813
11232,-9856,-3376,25036,-10725,8077,32548
11254,-12996,1576,22468,-21617,-1378,32767
11275,-18212,5780,17228,-29025,-2104,32767
11298,-24576,9752,12896,-32768,-3784,32767
11320,-30020,12084,9672,-32768,-4139,31585
11342,-32768,14268,5872,-32768,-19635,28217
11364,-32768,13488,-1308,-32768,-21395,25252
11385,-32768,13156,-7136,-32768,-13559,19393
11408,-32768,11980,-9128,-32748,-6448,10028
11430,-32768,9760,-9020,-29084,-1763,-271
11452,-32768,9304,-9728,-26320,4591,-8170
11473,-30264,10028,-11008,-25848,2194,-12979
11496,-24784,10804,-13616,-25225,25,-15386
11518,-21580,10368,-15612,-23476,2114,-17257
11540,-20088,8668,-18992,-21298,3037,-19275
11562,-17972,8292,-24524,-16911,6112,-21799
11585,-15840,7292,-30472,-9346,12551,-24670
11606,-13592,5868,-32768,1892,22373,-28008
11625,-8420,6620,-32768,15498,31798,-30954
11647,-3612,6272,-31824,30209,32767,-31530
11669,-440,6228,-22304,32767,32767,-29292
11685,3860,4612,-13240,32767,32767,-24614
11715,9192,1688,-7052,32767,28371,-18512
11737,15388,-1300,-2456,32767,21152,-11234
11757,15960,-5420,184,32767,27323,-2893
11781,10760,-7064,6000,32646,32767,5859
11803,11460,-8548,13404,21905,13636,14295
11819,11436,-9548,18420,13927,12039,21804
11847,4276,-10400,25856,3483,12996,28043
11870,-1780,-7316,28788,-10675,3482,32663
11892,-7584,-764,24540,-22450,2184,32767
11913,-16712,6040,16428,-30950,4589,32767
11936,-25240,10588,8540,-32768,1535,32767
11958,-31708,12484,3700,-32768,4256,28626
11979,-32768,12144,2176,-32768,123,20683
12002,-32768,13056,-2552,-32768,-3646,10620
12024,-32768,14000,-7420,-32768,-4334,946
12045,-32768,17264,-12400,-32768,-8293,-5547
12067,-29920,19152,-17100,-32768,-14893,-9018
12088,-27812,17628,-22648,-32768,-16140,-11103
12113,-28532,15860,-31480,-32768,-17050,-13168
12133,-29096,13188,-32768,-32065,-10224,-16803
12156,-25492,9736,-32768,-15635,866,-22024
12178,-19592,5612,-32768,3858,17411,-26251
12200,-15552,5804,-32768,19351,26347,-28265
12222,-11800,7244,-32768,26802,20428,-28489
12244,-5048,7984,-27876,29302,10682,-27632
12265,2732,7188,-26232,32741,9530,-24723
12288,7140,5920,-21720,32767,15578,-20216
12310,7832,6636,-14688,32767,26500,-14652
12332,8008,5804,-6984,32767,32767,-8087
12354,8752,2748,636,32767,32767,-401
12375,12184,-1012,7580,32767,32767,8220
12396,9708,-4180,11776,31103,32767,17004
12418,2420,-2200,15376,21386,32767,24616
12442,-1444,-1532,19340,6807,6387,30563
12463,-6052,1584,19512,-1195,1980,32767
12485,-17592,3456,20324,-7277,4206,32767
12508,-25480,5912,21168,-13354,4187,31348
12530,-32172,8188,22084,-21131,1052,25967
12552,-32768,8712,21184,-30250,-4557,18928
12574,-32768,9456,16412,-32768,-6334,12697
12596,-32768,12320,8408,-32768,-2538,7808
12617,-32768,14600,268,-32768,274,2480
12640,-32328,14880,-6676,-32768,4217,-3116
12662,-29696,15300,-14164,-32768,5280,-7937
12685,-25796,16764,-23544,-32768,-1761,-11091
12706,-24980,15664,-31484,-32768,-4187,-13150
12727,-24428,12140,-32768,-32768,-5735,-15739
12749,-22396,9048,-32768,-21809,3093,-19021
12770,-18424,6540,-32768,-9133,9423,-22289
12785,-13176,5032,-32768,3080,13245,-24352
12814,-9176,4412,-32768,13328,16628,-25299
12837,-6084,5232,-32768,22996,19717,-25747
12858,-996,6352,-32768,31356,19417,-24865
12881,3320,8220,-29812,32767,23476,-22271
12903,4184,7928,-21252,32767,23747,-18932
12926,7136,8104,-13600,32767,20960,-14818
12947,10416,5212,-6896,32767,20159,-9473
12970,11940,2628,-632,32767,26725,-2527
12991,9168,508,4824,32767,32767,4630
13013,6940,-1636,13280,32767,32767,12093
13036,7608,-5180,21560,20109,13962,19637
13057,6264,-6816,23792,9654,12931,26041
13079,-840,-3832,27144,48,19330,31026
13101,-7108,-12,29068,-14179,7379,32767
13124,-12220,5028,24552,-26152,2309,32767
13146,-21056,11368,17436,-32768,-191,32767
13168,-28072,16700,11876,-32768,-427,32767
13190,-32768,18428,10228,-32768,-4455,30672
13209,-32768,18460,5836,-32768,-7364,23174
13235,-32768,18844,-108,-32768,-5747,12734
13256,-32768,19000,-4916,-32768,-1028,1230
13275,-32768,18512,-11104,-32768,8456,-8106
13298,-28948,17720,-21104,-32768,12049,-13861
13322,-23784,15148,-28880,-32110,9506,-16349
13344,-23040,11676,-32768,-27606,414,-17954
13366,-21684,8776,-32768,-20935,-3956,-20120
13386,-18792,7072,-32768,-10240,1227,-22957
13410,-14552,5632,-32768,2681,9407,-25684
13432,-10124,5128,-32768,15377,17474,-27315
13452,-7360,6512,-32768,26430,21925,-27952
13468,-2752,8080,-31388,32767,23242,-27326
13498,1260,7672,-21968,32767,23586,-24992
13520,5272,7548,-16012,32767,21674,-21297
13542,8104,6900,-12536,32767,28118,-16532
13563,7772,6052,-6700,32767,32767,-10395
13585,8688,4016,3392,32767,25993,-2664
13607,13256,-1828,9372,32767,8542,4216
13629,9188,-4496,14000,31260,24214,11750
13651,1216,-3868,19988,23711,28775,17662
13673,1104,-4756,25480,9923,11844,22014
13696,-704,-4740,28208,-971,13812,26176
13716,-7784,-280,28524,-13347,9137,29371
13740,-12264,4984,24992,-23517,1679,31032
13757,-18580,8544,22176,-31047,-2443,32080
13783,-24540,12040,18368,-32768,-6497,31222
13807,-29252,14888,14400,-32768,-5355,28265
13819,-32768,16496,10884,-32768,-7086,23925
13849,-32768,19952,3764,-32768,-6268,18268
13872,-32768,23528,-6080,-32768,-11785,11359
13894,-32768,22540,-16984,-32768,-9533,5193
13916,-32768,21096,-25484,-32768,-2867,-620
13938,-32768,18752,-30224,-32768,899,-6649
13960,-32768,15180,-31424,-27916,7341,-13152
13982,-32612,12028,-32152,-20789,10416,-19081
14005,-26532,10428,-32768,-13695,12051,-23615
14026,-21144,9688,-32768,-5564,13249,-26705
14048,-16892,8340,-32768,2792,11190,-29233
14070,-12468,8788,-32768,13201,16733,-31695
14091,-7320,9844,-32768,23973,23521,-32768
14113,400,11404,-27532,32767,30256,-32768
14136,7276,10940,-19808,32767,32767,-29586
14158,10796,9220,-11468,32767,32767,-23530
14180,14988,6708,-2696,32767,31600,-15426
14201,19272,896,5304,32767,22033,-5768
14224,19000,-4284,12092,32767,18416,3936
14245,10420,-6100,19744,26929,26341,12633
14263,4700,-5640,29904,12461,11839,18787
14286,2648,-5476,30840,-1342,5566,23631
14312,-1744,-1052,25724,-11301,6854,26364
14333,-6816,2976,20148,-18607,11573,26695
14356,-11588,3592,15320,-26259,9961,26124
14377,-14564,5204,9400,-32642,4632,25323
14397,-17096,7408,3832,-32768,9429,23782
14412,-23188,8932,-1556,-32768,12112,20855
14441,-30952,7808,-12068,-32768,-4016,18058
14467,-32768,7640,-24720,-32768,-13089,15341
14488,-32768,7724,-30796,-32768,-8421,9237
14508,-32768,6636,-32768,-24508,4509,-456
14530,-32768,7788,-32768,-16724,8720,-10836
14554,-31296,6872,-32768,-7747,14956,-18299
14577,-20160,5528,-32768,-965,12908,-21391
14598,-13424,3660,-32768,4093,7694,-21488
14619,-10884,2652,-32768,8440,2283,-21377
14641,-6668,2576,-31928,13130,295,-21901
14663,-1400,2564,-29860,18947,3522,-21978
14680,3964,2632,-27940,25522,8844,-20907
14708,8232,4312,-23956,30918,10283,-18238
14729,12864,4840,-17488,32767,9915,-14424
14752,15884,3952,-10196,32767,14720,-9499
14773,16984,1784,-1252,32767,15632,-3352
14796,18208,-1088,6320,29718,10512,3377
14817,18788,-3520,13432,22899,6933,10375
14839,15692,-2560,20536,15517,6805,17607
14857,10820,-2896,24432,5276,1965,24031
14874,7008,1428,25472,-5064,-2545,29100
14905,1944,6000,25300,-12717,-1129,32767
14927,-6340,6976,26056,-19923,1855,32767
14949,-13828,11144,23108,-28355,-831,32767
14971,-19656,16084,16496,-32768,357,32767
14993,-28360,19988,9352,-32768,6611,32767
15014,-32768,23468,-992,-32768,-8833,29057
15038,-32768,25512,-16196,-32768,-10667,22382
15060,-32768,24064,-26800,-32768,-4829,12280
15081,-32768,21396,-32768,-29091,895,126
15104,-32768,18488,-32768,-17760,8837,-10548
15126,-32768,15116,-32768,-7463,14805,-17785
15146,-31724,11392,-32768,-36,12757,-22427
15169,-24144,9672,-32768,5482,7433,-25434
15191,-17016,8844,-29404,9557,3251,-26886
15214,-11452,8244,-26868,14335,3461,-27466
15234,-7160,7980,-23736,19226,5290,-27580
15257,-1508,8132,-22384,23925,6465,-26987
15280,3056,7184,-19144,29734,12373,-25233
15296,6544,6716,-12756,32767,16071,-22335
15324,10796,4500,-6028,32767,16640,-17983
15346,13172,1552,-196,32767,18752,-12770
15367,14800,-1140,5112,31850,22575,-6637
15388,18104,-3636,14044,25266,17118,1012
15408,17860,-6756,20436,16993,17322,9854
15434,14272,-6064,21880,4868,11793,17688
15452,10144,-3264,23724,-6742,8323,24938
15475,3524,560,23600,-17630,2436,31326
15497,-7128,6300,18668,-26337,-3109,32767
15522,-18228,12216,10332,-30025,-4392,32767
15543,-30176,14964,4004,-29941,-295,32767
15564,-32768,15428,1588,-31220,-5899,25926
15588,-32768,15896,-1124,-30370,-3750,15056
15609,-32768,14052,-5192,-30151,5870,4387
15632,-32768,13056,-15524,-31433,2479,-3042
15654,-32768,13552,-28360,-29791,-1540,-6226
15676,-32768,11912,-32768,-24654,-1009,-8546
15698,-32768,7968,-32768,-17084,-926,-12954
15719,-30576,6672,-32768,-7012,1832,-18041
15741,-24064,6220,-32768,3704,7965,-22027
15757,-17284,5432,-32768,12299,12448,-24298
15786,-11096,5204,-30240,18062,10139,-24480
15806,-3564,5212,-25160,22065,6285,-23427
15829,1264,4656,-19704,26525,9869,-21228
15852,4544,4000,-14136,29448,11985,-18260
15873,9176,3496,-8116,29843,10334,-14390
15895,11684,1320,-2248,29076,12381,-9353
15914,12472,-448,2880,26750,14850,-3868
15936,12732,-4100,10048,21198,11424,1484
15960,14224,-5404,13656,14723,10863,6581
15980,13276,-5440,15864,9291,16767,12075
16005,8836,-4332,20636,1125,15051,18014
16025,4144,-2196,21076,-10409,5062,23478
16049,-3016,2188,16788,-19677,-2517,27556
16071,-12308,5392,12340,-23822,-636,29430
16093,-23736,9040,9468,-26976,2172,28399
16115,-32768,13092,4624,-30850,-333,24541
16137,-32768,14804,-1396,-32768,-4257,17952
16160,-32768,15348,-8648,-32768,-5766,9987
16182,-32768,17136,-16980,-32768,-2807,1937
16204,-32768,17264,-25380,-31427,-1059,-5455
16226,-32768,15464,-32592,-26337,-1651,-12256
16248,-32768,13472,-32768,-18876,2196,-18113
16270,-30268,11796,-32768,-10218,7860,-23191
16292,-24436,9508,-32768,-2303,7103,-27229
16313,-16356,7640,-32768,5938,6103,-29656
16335,-7416,6792,-32768,14934,8513,-29579
16358,-2164,6172,-32768,23788,11633,-27451
16376,1056,5460,-26212,29999,10945,-24409
16396,4412,5208,-19216,32767,10903,-20961
16423,6304,4772,-11956,32767,13864,-16691
16446,7644,2900,-3556,32767,11046,-11829
16467,10324,728,2048,31137,10889,-6246
16489,10940,-2360,7124,26421,12237,-146
16511,11392,-4224,12504,20428,11994,6189
16526,10744,-5844,16592,13045,10207,12504
16555,9224,-5120,18652,5825,11340,18443
16575,4848,-3232,19892,-3048,7173,23413
16598,652,-436,17560,-10976,3411,27400
16619,-7024,2424,13876,-16416,3226,29809
16641,-15108,5348,10664,-20806,3194,29947
16664,-22380,8584,8188,-24257,4489,27860
16688,-30064,9716,5244,-26700,7394,23654
16709,-32768,10356,-368,-28636,9136,17542
16731,-32768,12332,-6996,-30222,4009,9563
16753,-32768,12036,-12024,-28172,8718,647
16776,-32768,11852,-16072,-24623,17865,-7805
16798,-30664,11492,-20160,-22181,18644,-14171
16820,-23428,11572,-22800,-19324,17549,-18340
16836,-17672,11368,-24000,-15322,22762,-21451
16864,-13848,9328,-26004,-12355,23161,-23968
16886,-8316,6848,-29236,-10184,14847,-24927
16907,1352,4888,-31484,-6085,11678,-23967
16930,8148,1284,-32488,517,16679,-20592
16946,11012,-1768,-32684,5867,15994,-15705
16974,10468,-2532,-31748,9886,11345,-10795
16995,11676,-1980,-30980,13271,7807,-6661
17017,14212,-1324,-28600,16915,6848,-2233
17036,15404,-572,-25060,19735,5916,3209
17061,14232,1076,-23028,21603,4396,8603
17081,11948,2776,-20132,22614,2392,12721
17096,12244,3092,-15256,21808,-1622,16195
17127,11180,3052,-12592,21583,1515,19836
17150,6452,3560,-13052,20850,3072,22780
17171,2316,4396,-14132,20830,2114,24028
17193,104,4520,-12244,20251,-3558,24780
17215,-472,4760,-10484,21488,-4223,25838
17236,-4028,8328,-5228,23842,323,27067
17259,-10240,10000,4504,22219,-634,28251
17280,-20832,7816,14788,16827,240,27795
17302,-30840,7120,22688,7942,445,24437
17325,-32768,8828,26008,-2887,122,18347
17347,-32768,8480,24408,-13422,501,11208
17370,-32768,8908,18656,-21409,2191,4677
17391,-32768,10492,12492,-27033,6114,-478
17413,-29592,11820,4064,-32718,4993,-4836
17436,-25660,12512,-5648,-32768,3593,-7937
17457,-22192,14248,-14216,-32768,464,-9623
17480,-23364,15564,-20360,-32768,1049,-11316
17502,-25312,15780,-25408,-32019,2461,-14983
17524,-21812,15068,-28808,-27951,3023,-19313
17546,-14992,12632,-32496,-22247,6488,-21650
17565,-11668,10792,-32768,-16142,6666,-22114
17587,-8324,8148,-32768,-9879,5976,-22672
17611,-2420,5376,-32768,-2351,8564,-22107
17630,2996,3124,-32768,5439,8851,-19410
17655,6084,1408,-32768,13453,10216,-15686
17674,7880,720,-32768,19731,10022,-11768
17697,11532,480,-27340,23838,9180,-7438
17721,14620,432,-21356,26169,9279,-2049
17744,15936,-788,-16496,27212,11942,4210
17765,14396,-184,-12504,27287,14505,10609
17787,9772,-352,-8164,25054,11182,16149
17808,5196,-516,-5332,21621,5599,20213
17831,1472,1588,-4772,20272,6347,22796
17853,-3960,3072,-3336,21373,13507,24268
17874,-10180,4808,1320,20054,15158,24424
17897,-17292,2844,9476,14297,8836,23422
17919,-21464,2452,12508,8086,5610,21207
17941,-25076,3016,11844,4036,11002,17173
17963,-28480,4888,13716,-2017,8110,12694
17985,-31232,4428,15468,-10174,2539,8972
18007,-32716,7012,13780,-18353,-1425,5132
18029,-32768,8628,8132,-24680,2580,242
18051,-32768,10516,1040,-31160,467,-5977
18074,-31636,13136,-7104,-32768,-4264,-11084
18096,-27540,15808,-15212,-32768,-4208,-14852
18118,-24984,16000,-22564,-32768,-2784,-17937
18140,-22540,15388,-29508,-32768,-5601,-19924
18162,-20600,15444,-32768,-28768,-5808,-21527
18179,-17740,14312,-32768,-21603,19,-23765
18206,-12916,11616,-32768,-13621,3889,-25603
18227,-5388,7404,-32768,-6892,3209,-25685
18248,1900,5008,-32768,1034,3970,-23421
18270,8032,2244,-32768,9110,4931,-19232
18293,11940,656,-32768,16739,6768,-13651
18315,12680,-480,-32768,22202,4866,-7732
18337,13132,644,-30108,26715,4320,-2457
18359,13276,1968,-25644,30495,5901,2561
18380,13232,2660,-19912,32066,3689,7981
18403,13612,3588,-15300,32312,2069,13665
18425,10360,5212,-11668,31947,706,19641
18447,3828,7188,-9040,31539,-3363,24001
18468,-2044,9408,-6028,32695,-5901,25745
18491,-6960,13180,212,32767,-225,25581
18513,-18412,13868,11968,32767,11508,24365
18536,-28304,10536,23804,26897,11940,20388
18558,-31644,7552,29504,15940,16897,13995
18579,-31104,6792,30076,3985,19912,7586
18602,-24072,5444,27236,-9001,11027,4550
18624,-18288,5416,22904,-17193,10544,5117
18646,-19936,6344,19516,-22938,12395,5316
18667,-24436,8472,16740,-28057,16653,3029
18690,-27508,11460,11780,-32768,15340,-1099
18711,-28404,14520,936,-32768,7965,-4702
18729,-29536,19048,-13848,-32768,-4127,-7266
18749,-30616,20000,-24152,-32768,750,-11419
18778,-31052,18080,-29276,-32768,5770,-17024
18800,-26048,19120,-32416,-29272,4232,-21213
18822,-21472,19216,-32768,-24914,3596,-24029
18844,-18716,17496,-32768,-21342,223,-25841
18866,-14532,14796,-32768,-16308,-2829,-27583
18887,-6796,11616,-32768,-8662,739,-27915
18909,-796,7556,-32768,1048,6607,-26440
18931,3272,4212,-32768,8848,5930,-23872
18952,9164,2240,-32768,15937,9430,-20185
18974,14584,64,-30488,22418,14599,-14197
18997,16872,-488,-26972,26738,13869,-6605
19018,16564,96,-21276,28231,8085,1046
19041,15380,968,-15496,28323,5247,8051
19063,12208,1500,-11816,27455,3782,14397
19084,7956,3380,-10720,26586,698,19396
19107,3620,3504,-8588,25749,-3078,23232
19130,1504,5396,-7064,25766,-3525,25957
19151,-2808,6724,-4312,26090,-2285,28102
19174,-8100,9188,-2064,26815,-1175,29284
19191,-15224,10840,2024,27917,3114,28318
19217,-21588,10912,10976,25030,347,25237
19240,-28264,8700,17816,22046,12560,20249
19261,-32768,7516,21892,14638,16701,13837
19282,-32768,8880,26296,4124,11208,7403
19306,-30156,8228,28880,-5392,15517,3124
19326,-28748,8388,28384,-17189,15077,174
19348,-25900,11524,22332,-28800,10605,-1740
19372,-24536,14092,12452,-32768,8693,-3249
19393,-24408,16464,988,-32768,5197,-5085
19416,-24288,18600,-10040,-32768,-260,-6838
19438,-23652,20680,-17380,-32768,-1672,-8771
19459,-23764,21276,-20516,-32768,-267,-11152
19482,-24140,20868,-21716,-32768,2868,-14023
19504,-23444,19280,-25916,-32768,1924,-16963
19526,-20296,18412,-32060,-31119,-1444,-18816
19548,-17164,16116,-32768,-24853,595,-20091
19570,-14704,12012,-32768,-16317,3938,-21499
19585,-8840,8104,-32768,-6258,8827,-22425
19613,-2996,5732,-32768,3512,11650,-21160
19635,1600,3076,-32768,11593,11145,-18152
19657,5276,1692,-32768,19332,11502,-14343
19679,9604,1380,-30032,25595,10773,-9390
19702,12176,2040,-25236,31247,15302,-3428
19723,11768,3240,-19068,32767,20715,3461
19746,9784,3684,-12544,32767,17600,10477
19767,6804,4488,-7852,32376,14465,16332
19786,4304,5168,-4524,30351,18298,20991
19811,-2080,6128,-1344,27874,24035,25043
19825,-9924,6440,3568,22924,20679,27457
19853,-16248,7592,8816,16832,17113,27613
19875,-23948,8068,13724,10046,18190,25199
19898,-32248,6144,18540,610,10938,20851
19921,-32768,7356,18884,-8494,6235,15314
19943,-32768,8844,15684,-16289,2911,8097
19966,-32768,9236,11036,-23157,183,-460
19987,-32768,10284,5400,-28294,1626,-7997
20009,-28696,12064,-1960,-32398,-319,-12688
20033,-21164,14100,-9892,-32768,-1584,-14684
20053,-17828,13616,-16192,-32768,-2657,-15177
20076,-17552,14152,-22468,-32768,-4168,-15296
20097,-19272,16120,-29512,-29906,-909,-16693
20118,-19604,15240,-32768,-24074,1246,-19168
20141,-16896,13092,-32768,-17005,1576,-21641
20164,-11488,11156,-32768,-8963,5527,-23146
20185,-4888,7696,-32768,-1223,6970,-22646
20207,680,4816,-32768,5663,5195,-20089
20229,4704,2504,-32768,11829,3584,-16247
20252,7936,1356,-32768,17752,5227,-11581
20274,9376,1056,-28116,22395,5984,-6364
20295,9332,848,-23320,25392,7073,-1326
20314,9372,1040,-19736,27498,10567,3346
20339,9184,1652,-16188,28209,12980,8427
20361,8132,1080,-13220,26018,7255,13735
20382,7356,2308,-12644,24291,3435,18260
20404,3120,3492,-12380,24494,5398,21619
20427,-2372,4916,-11028,24986,6923,23546
20449,-6796,5856,-8740,25076,5956,24003
20471,-10716,6160,-4764,26587,12015,23011
20493,-14420,6484,2964,25482,15956,21350
20514,-17200,6496,10968,20011,15582,19675
20537,-19468,5864,16044,12764,18747,17566
20560,-22352,5804,19468,3550,20175,15159
20581,-24980,6732,20540,-9190,8192,13527
20602,-28296,8892,17008,-19155,2016,12244
20625,-32768,11468,11036,-24393,5862,8796
20641,-32768,13464,5668,-27822,6622,1968
20669,-32768,13916,392,-30866,3031,-6235
20692,-32768,16632,-5792,-31698,3436,-13958
20713,-32080,18096,-9332,-32324,2373,-20274
20736,-24148,18800,-12916,-32768,1420,-24050
20758,-17612,20288,-18080,-32768,1409,-25730
20780,-13276,20752,-23712,-31531,3628,-26402
20802,-11508,20544,-31904,-28639,5333,-26791
20824,-8616,18532,-32768,-23726,3642,-27016
20846,-5676,12828,-32768,-16770,1286,-26351
20867,-1268,9720,-32768,-7679,3481,-25108
20890,3372,6832,-32768,2911,9716,-23076
20908,8576,4336,-32768,11786,10397,-19494
20933,11828,2532,-32768,17387,5678,-14417
20954,14708,1964,-32296,21855,3080,-8971
20975,16524,1820,-26776,26073,6967,-3051
20997,16116,2248,-21756,28846,11606,3190
21020,13132,3036,-17208,29068,11871,9262
21042,11180,3292,-14784,26707,4088,14347
21064,10484,4760,-13500,25953,1016,18827
21086,7300,6408,-11236,26245,1804,22744
21108,988,6516,-8888,25690,1356,25716
21131,-5076,6436,-8496,24950,-984,26657
21147,-8976,7328,-7752,26228,1467,25945
21174,-11692,8848,-3632,26873,1193,25145
21197,-15468,10200,1680,27010,4312,23989
21219,-21972,9000,7296,25735,12043,21865
21242,-28716,10132,12816,21987,18535,18285
21262,-32768,9776,19864,13389,15884,13818
21285,-32768,8376,24636,1577,11843,8132
21308,-32768,7504,24900,-10800,12099,1738
21329,-32656,8720,20596,-21688,11914,-3896
21352,-27916,10720,13724,-30453,10424,-7860
21373,-24132,13360,5264,-32768,3120,-10067
21397,-21608,14664,-2716,-32768,1034,-11397
21418,-22344,15820,-9532,-32768,2427,-13431
21440,-22224,18916,-16768,-32768,-1242,-15851
21461,-21924,18644,-23808,-32768,-449,-18760
21482,-19164,19704,-30136,-32768,-38,-21641
21504,-16796,18140,-32768,-30829,-2418,-23321
21526,-13924,15972,-32768,-25151,-285,-24394
21550,-12688,13948,-32768,-17738,4123,-25247
21570,-11172,10348,-32768,-10798,2124,-26009
21593,-7072,8084,-32768,-3511,257,-26070
21615,-3032,5140,-32768,5532,4781,-25011
21637,56,3504,-32768,14889,8949,-22881
21659,2044,2512,-32700,22445,10744,-20046
21680,4732,1260,-27496,27364,11511,-16429
21702,6336,728,-23524,31203,13505,-12025
21725,4084,192,-17928,32767,16248,-7495
21747,656,-712,-11324,32767,13227,-3591
21768,-2328,-1468,-6812,31025,7975,-744
21791,-5864,-1860,-3048,28621,5638,252
21813,-8604,-3672,996,25997,6389,-351
21835,-6980,-3600,3776,22506,6587,-1380
21858,-1340,-3904,4700,19431,9941,-1341
21879,1920,-5552,6388,18500,22774,-3
21896,2940,-6036,9012,15791,32767,2931
21923,4440,-6756,9724,6754,18710,7790
21946,7816,-6328,6596,50,10382,12870
21967,5592,-5300,5364,-2724,18823,16885
21987,-1636,-4168,5568,-8478,16289,19529
22009,-9212,-1692,3864,-16580,-721,20970
22033,-11720,1748,568,-20125,-6754,20842
22055,-13848,3496,632,-19705,5156,19191
22077,-13256,3300,1372,-21212,14454,16719
22097,-8324,4632,1700,-26086,11888,15369
22121,-5404,3880,-1060,-32768,-1619,17492
22143,-4472,5720,-6880,-32768,-15121,21775
22158,-10696,7208,-11104,-32768,-2719,24853
22188,-23172,12552,-11688,-29860,15643,23003
22210,-32768,16444,-15188,-32768,9777,16769
22231,-32768,22112,-22484,-32768,-1328,7191
22254,-32768,22660,-32628,-29045,3160,-3992
22276,-32768,20516,-32768,-22266,6902,-13966
22290,-32632,17520,-32768,-16854,5180,-20735
22320,-26040,14868,-32768,-12384,-3160,-25380
22342,-16588,12348,-32768,-4082,-373,-28525
22363,-7232,9920,-32768,7420,10238,-29032
22385,-504,7396,-32768,17016,12999,-26366
22407,1448,5456,-29824,22481,9024,-22364
22429,1560,5048,-24952,25016,3756,-18781
22451,1460,6284,-21896,26773,1104,-16086
22474,12,6364,-18840,30426,7620,-14338
22495,72,6420,-14768,32767,13517,-12820
22519,1924,5592,-10600,32767,10666,-9704
22535,5160,4808,-5476,30648,5408,-6265
22559,6964,3200,1180,28236,9731,-2715
22581,8668,-704,7832,23903,14624,1640
22602,10288,-2976,12052,17025,15635,6641
22619,11316,-2760,14952,8922,12404,12072
22647,11208,-2472,17648,830,10546,17997
22671,5212,-2116,18764,-7685,10504,23072
22693,-2068,2200,15028,-16329,4733,26245
22715,-8936,5140,10920,-22254,1472,27356
22736,-15640,6512,6372,-26388,3034,26434
22759,-23008,8964,-1088,-29707,2753,23921
22774,-28908,12000,-8036,-30915,-629,20030
22803,-32768,12492,-12068,-29605,1253,14498
22824,-32768,12368,-17056,-28474,1221,7571
22847,-32768,12492,-23816,-26484,-3954,78
22870,-32768,11800,-28400,-21880,-1770,-6816
22892,-29148,10640,-32768,-16174,6026,-12035
22914,-24880,9364,-32768,-10707,5655,-14813
22936,-21928,7924,-32768,-4671,2758,-16973
22957,-16704,6492,-32768,3036,4754,-18731
22979,-11696,4756,-32768,10709,6389,-19030
23001,-9628,4708,-32768,17464,5726,-18204
23023,-9168,5780,-30160,22421,2315,-17477
23046,-7508,6516,-24360,25831,-662,-17551
23066,-4984,7592,-19308,28428,15,-17664
23090,-2336,7712,-14500,30222,2913,-17725
23107,1484,5268,-9996,31235,8296,-16775
23132,6224,3112,-6508,31418,12186,-13852
23153,10088,868,-2152,29791,12158,-9273
23176,12612,-2164,2020,26420,11718,-3785
23199,13460,-3888,5380,22507,14026,1831
23220,13404,-5260,10700,16583,13445,7508
23243,11432,-6316,14372,8507,10950,13122
23266,8044,-4648,14256,951,11222,18027
23287,3720,-1512,14608,-6384,10643,22168
23309,-2264,1628,14736,-14821,5845,25710
23330,-9560,5480,12716,-21742,5433,27598
23353,-18124,8752,8692,-27029,7518,27045
23368,-26740,10560,2128,-32145,1860,24020
23397,-32768,11908,-4444,-32768,-2439,19075
23420,-32768,12516,-9564,-32768,-3629,12416
23442,-32768,13576,-16820,-32768,-8063,3788
23464,-32768,13096,-23192,-28568,-851,-5679
23480,-32768,11676,-26824,-24358,822,-13032
23508,-29016,10536,-27724,-21138,-1600,-17086
23530,-23204,9696,-31376,-16986,2189,-19473
23552,-20556,8296,-32768,-11657,3405,-21504
23569,-18148,5944,-32768,-5442,1433,-23494
23595,-13816,4080,-32768,1456,607,-25088
23617,-8000,3440,-32768,9574,3021,-25445
23639,-3320,2388,-32072,17390,6203,-24094
23659,-1056,2392,-27396,23284,6522,-21796
23674,-148,2736,-22820,27650,5530,-19709
23705,1032,4324,-17100,31233,7760,-17765
23727,2044,3416,-10848,32494,8688,-15273
23747,4624,1692,-5588,31766,9464,-12122
23764,4896,-276,-348,29735,12044,-8198
23793,6244,-3460,4772,24637,9145,-3355
23815,7884,-5616,7196,18194,5684,1914
23835,6780,-7604,8420,12632,5779,7215
23859,4888,-7380,9104,7508,5770,11772
23881,2176,-7612,8552,3057,7755,15406
23903,-336,-5852,6584,-1520,6690,18006
23925,-2088,-3612,5176,-5541,5923,19998
23946,-4376,-2440,4676,-8900,6931,21775
23969,-9088,-1628,3072,-12235,6572,23325
23990,-14548,516,-300,-15883,190,24032
24014,-18500,3292,-1772,-18417,-7677,23621
24035,-21696,3060,-1708,-18303,-3760,21766
24058,-28424,2188,-3880,-17822,6404,18256
24080,-32768,3276,-7128,-20415,72,13059
24102,-32768,3852,-10652,-21321,-4128,8199
24123,-32768,3848,-14796,-19739,-1590,3456
24144,-32768,3008,-17876,-17582,221,-1709
24166,-31036,2004,-20364,-14951,657,-7037
24189,-25048,1352,-21276,-12130,891,-11114
24211,-19840,-128,-22536,-8737,3974,-13213
24234,-17420,-1620,-23960,-5155,5694,-13929
24256,-16564,-2100,-24512,-2472,2009,-14200
24278,-15200,-2292,-23136,-312,-2418,-14681
24298,-13652,-2328,-21552,3034,-44,-15346
24321,-12616,-2260,-20292,6977,5128,-16014
24343,-11068,-2264,-19984,10848,8618,-16519
24365,-8044,-1828,-18908,14210,9664,-16628
24387,-4384,-1928,-17784,17263,12485,-15648
24408,-1428,-2252,-15908,19646,14154,-13713
24430,1212,-2928,-13496,20722,13347,-11241
24453,4480,-3552,-11248,21240,13659,-8209
24474,7424,-4496,-9108,21911,17008,-4321
24497,9104,-4396,-5848,22034,20863,531
24519,9832,-5084,-1444,19559,19439,5921
24541,10252,-4796,2632,14681,15467,11862
24563,9120,-3880,5096,9291,13046,17907
24585,5024,-2216,6784,4669,16038,22985
24607,-1980,912,8332,-748,20232,26390
24630,-9788,3316,9160,-9315,13827,27416
24651,-15768,5156,8096,-16510,7070,26683
24674,-23564,5416,3244,-20553,6594,24314
24695,-31156,7588,-3916,-22453,-1966,19670
24715,-32768,6756,-5652,-19886,-272,12861
24736,-32768,5700,-3024,-17986,4802,4896
24761,-31288,5740,56,-20189,5923,-1498
24774,-25568,7032,464,-25503,5144,-5470
24804,-22692,8568,-4676,-31427,3335,-7413
24828,-23276,10708,-13892,-32768,-387,-8981
24850,-24176,12692,-24436,-32768,2436,-11865
24872,-23428,14256,-32768,-30706,4874,-16009
24892,-21896,11732,-32768,-23953,4048,-19983
24916,-18660,9992,-32768,-15411,5352,-22986
24938,-13900,8904,-32768,-6756,7457,-24893
24959,-9580,7216,-32768,-200,6047,-25591
24981,-6180,6236,-32768,4860,1593,-25155
25002,-3668,5992,-32768,10275,-1361,-24626
25025,-1224,6068,-32164,16664,927,-24128
25047,1820,6504,-29876,23468,5890,-23074
25069,4668,6608,-26636,30524,12736,-21202
25091,8612,6596,-22332,32767,19797,-18040
25114,12888,6136,-14964,32767,24511,-12349
25135,14408,2584,-8400,32767,22921,-4975
25157,14048,948,-4708,32767,20569,2166
25179,11704,60,-2292,32767,23514,8483
25201,8296,-456,456,29408,22532,13648
25223,6628,-276,2956,24640,21217,17445
25245,7612,-840,6536,19649,23010,21346
25263,5932,-780,11316,13386,27854,26632
25289,832,1472,15752,2753,21798,32040
25310,-5024,3916,19152,-11251,4183,32767
25331,-11144,6516,18816,-23231,-7642,32767
25355,-18724,11904,14600,-30020,-6762,32767
25378,-29916,17784,8668,-32768,-1967,32767
25400,-32768,20744,3588,-32768,-238,32602
25419,-32768,20992,312,-32768,-362,22219
25442,-32768,21560,-3268,-32768,5677,9867
25466,-32768,21432,-8096,-32768,10791,-2987
25488,-32768,20728,-13480,-32768,8909,-13038
25507,-30280,20180,-19116,-32768,1712,-18188
25532,-22140,18016,-25376,-32768,1424,-20234
25553,-18864,15512,-29664,-30339,3918,-21687
25575,-18528,13384,-32768,-24559,5110,-23621
25597,-17772,11640,-32768,-18141,3125,-26219
25619,-12664,9924,-32768,-9667,5052,-28165
25641,-8276,7584,-32768,133,9773,-28724
25663,-6000,5576,-32768,8397,9992,-28472
25685,-3644,4680,-31992,15254,9052,-27969
25707,-1496,4856,-29232,22358,11105,-26909
25730,1016,5248,-25712,28553,12454,-25633
25752,3784,5920,-20340,32767,15391,-23114
25773,6456,5144,-13892,32767,13612,-19062
25795,8608,2324,-8916,32767,12729,-13551
25813,8080,-892,-4916,32767,14299,-7810
25836,7072,-1708,-584,31335,16228,-2229
25858,7260,-5540,4032,24554,5579,3758
25882,9228,-8448,5144,19313,3630,9400
25903,7296,-9752,4932,17181,18034,14968
25925,1932,-6496,2968,13382,26273,19245
25947,-1568,-4612,768,7765,20274,21860
25970,-348,-3868,192,4081,17109,24213
25993,-2852,-2068,3020,975,21246,27277
26014,-7800,-484,7764,-5340,16452,29196
26036,-10900,2280,10604,-12744,11169,30493
26059,-17176,5112,10808,-21264,4733,31066
26080,-23240,9068,6964,-27564,2493,29433
26103,-29352,12320,3940,-30435,7758,25044
26125,-32768,14392,2520,-32768,13243,17978
26147,-32768,15744,-1324,-32768,8736,8873
26169,-32768,17980,-7792,-32768,419,-388
26185,-32768,19708,-11896,-32768,3632,-8563
26214,-30652,20232,-16732,-32768,3659,-14610
26236,-24904,20388,-23292,-32768,-1364,-17886
26258,-21708,17928,-29188,-32768,-5306,-19473
26279,-19916,16488,-32768,-28991,-1693,-21468
26302,-17652,13800,-32768,-19412,9348,-24581
26324,-13972,11988,-32768,-10767,15006,-27086
26346,-10280,9460,-32768,-3477,12377,-27778
26367,-6924,7164,-32768,2313,4772,-27106
26386,-3156,5428,-32768,9233,3017,-25759
26409,208,4904,-32768,18598,11373,-23739
26433,1524,4324,-29520,27578,19469,-20648
26455,2540,4500,-23308,32141,18155,-17108
26476,5560,4296,-18680,32014,7084,-12952
26498,8484,3292,-16488,32361,3826,-8013
26521,8376,2236,-13744,32767,10000,-2937
26543,5772,1464,-8924,32767,19542,2078
26565,3100,-440,-6032,32767,20693,6325
26587,2596,536,-5172,32767,23734,9953
26609,4256,1804,-3144,32643,30195,14126
26631,2428,888,1244,29499,32767,19649
26653,-356,1788,6820,21133,28113,24804
26675,-3512,1416,13056,10141,16992,28962
26697,-7940,1012,17328,-1896,6655,31590
26719,-12124,3352,15528,-11802,6282,32533
26741,-17788,6700,11896,-20795,4528,31633
26763,-23028,9200,7064,-28184,-5837,29663
26786,-26408,11416,1764,-31881,-13648,27605
26808,-30820,12940,-2120,-31393,-12585,24381
26829,-32768,12768,-3820,-30225,-14302,19735
26852,-32768,11608,-3168,-28229,-13425,14034
26874,-32768,10512,-1564,-27359,-11540,8437
26896,-32768,10312,-2084,-26202,-2767,3229
26918,-32768,10244,-4564,-25913,3403,-1625
26936,-32768,10972,-7624,-25783,5158,-6530
26962,-30072,11300,-10416,-25638,4682,-10690
26980,-25460,11464,-12684,-24841,3925,-14082
27003,-21264,10260,-13692,-23210,5538,-16429
27027,-18368,9840,-15124,-21699,5699,-17898
27050,-16728,8784,-17388,-19869,4719,-18953
27071,-15352,7472,-20392,-16613,5715,-19986
27094,-14416,6356,-23932,-11513,8508,-21085
27115,-14160,4596,-26100,-4853,11632,-22429
27137,-12240,3020,-26488,2018,12603,-23527
27159,-9532,2360,-25788,8985,13989,-23925
27182,-6396,2380,-23868,15638,16016,-23612
27203,-4392,2036,-20756,21207,18071,-22035
27225,-3420,1144,-17496,24950,18298,-19966
27247,-2200,-44,-13284,27618,19883,-17535
27269,-772,-2540,-11212,26961,16203,-14221
27292,860,-3312,-10644,27349,17342,-10578
27314,192,-4168,-8488,28106,21834,-7280
27336,-1016,-5464,-5704,27352,24113,-4191
27357,680,-7120,-3896,23916,18664,-680
27379,4936,-8064,-3592,21247,16852,3392
27401,5440,-8836,-2436,20321,23696,7975
27423,2468,-8400,-544,18938,31895,11646
27445,396,-8720,2396,14018,29438,14411
27465,1240,-8612,4268,7753,23592,16852
27489,-32,-7984,5360,1323,20694,19298
27511,-1428,-6092,5224,-5479,16504,21177
27534,-2160,-3920,5432,-11207,15579,23224
27556,-5460,-1536,3888,-17421,12691,25108
27577,-8460,2848,1092,-23437,4019,26419
27599,-12284,5820,-800,-26811,722,26969
27620,-19944,7544,-2608,-29134,-566,26024
27644,-26460,10132,-4412,-31853,-9610,23106
27666,-32768,11328,-6512,-32557,-16302,18696
27687,-32768,11664,-6888,-31249,-15553,12585
27709,-32768,12148,-6948,-28071,-5118,4948
27732,-32768,12136,-6880,-26564,1250,-2578
27754,-30728,12016,-6472,-27660,-150,-7996
27776,-23856,11408,-7336,-30371,-5220,-10324
27797,-19108,11812,-9808,-31869,-6206,-10703
27820,-17864,11564,-13108,-32035,-4932,-10449
27835,-19440,11636,-17040,-32028,-7830,-10594
27864,-20240,11680,-21644,-29857,-9493,-11435
27886,-19472,10700,-25008,-24841,-5380,-13042
27907,-18420,9436,-27064,-17522,2620,-14870
27928,-17588,7820,-28044,-9868,8196,-16541
27952,-16636,6056,-27120,-2948,10171,-17619
27974,-15276,5168,-24836,2762,9548,-18476
27995,-13784,4572,-22056,6697,7172,-18896
28017,-12484,3848,-20424,9656,5377,-18958
28038,-11076,3484,-20196,12507,3927,-18743
28061,-9616,3408,-19624,16126,4149,-18580
28084,-8240,3076,-17412,20642,9124,-18267
28105,-6816,2392,-15328,24332,14367,-17465
28127,-4900,2152,-12728,27452,19173,-15707
28149,-3992,1068,-9048,28983,22036,-13269
28171,-3228,-836,-5672,28379,22001,-10208
28193,-1724,-2720,-4068,26177,19640,-6943
28214,108,-3880,-3708,24931,22773,-3718
28237,1388,-5116,-2672,24896,30833,-386
28259,2840,-7524,300,22843,32767,3921
28281,6028,-8444,2320,17762,30350,9550
28303,5276,-9332,2336,12839,30319,15511
28325,2596,-7356,716,7530,27835,20361
28347,-284,-5860,380,1890,20823,24314
28369,-3476,-3844,244,-4121,11767,27478
28391,-7248,-1456,-676,-8573,6746,29160
28413,-11876,1376,-1748,-11157,6486,29344
28436,-17984,2784,-2344,-13157,7396,27637
28458,-24492,3392,-3244,-15480,7348,24094
28479,-29280,3804,-2732,-19609,-280,18649
28496,-30848,4936,-2756,-23358,-7401,13057
28524,-30748,6436,-3076,-26751,-10423,8495
28545,-30772,9200,-4080,-30150,-14646,4895
28569,-30392,10168,-5020,-32768,-17721,1972
28590,-29112,10520,-5720,-32768,-18158,-840
28610,-27200,12040,-7632,-32768,-12884,-3823
28634,-26168,11980,-10064,-32768,-10522,-6298
28655,-25256,11784,-13108,-32768,-12138,-8074
28678,-22788,10900,-15320,-31291,-10387,-9765
28699,-20664,9836,-15888,-27913,-7624,-10960
28720,-19172,8620,-16732,-24147,-3783,-11695
28743,-18956,7972,-16960,-20023,-324,-12579
28764,-18308,6932,-16252,-16740,213,-13539
28786,-17252,6196,-16236,-13799,541,-14359
28810,-18000,5620,-18328,-9623,4141,-15123
28824,-18428,5388,-19100,-5291,4322,-16581
28853,-17404,4736,-18512,-757,5808,-18177
28875,-16628,4184,-18860,4065,8731,-19660
28897,-15368,4416,-18984,9031,10627,-21057
28914,-13368,3956,-18852,13780,12631,-21998
28942,-11188,3404,-18292,19102,16402,-22245
28963,-9516,2852,-16900,24058,20221,-21564
28985,-6608,2300,-14908,27790,21150,-19981
29007,-4308,236,-12188,30597,23412,-17581
29029,-3024,24,-9964,32767,31803,-14526
29051,-2852,-1596,-7140,32767,32767,-10938
29073,-1120,-4144,-5092,32767,32767,-6784
29095,1940,-4824,-4532,31998,32767,-2391
29117,2264,-5832,-2552,32534,32767,1939
29136,84,-5996,2440,29831,32767,6514
29158,-1116,-8376,6520,22337,32767,10697
29183,-2080,-8960,10076,13527,32767,14114
29205,-3336,-8924,13512,3169,31424,16810
29227,-4724,-7696,16096,-8595,24966,18947
29240,-5628,-4496,14308,-21265,16024,20845
29271,-6556,2872,8292,-31647,4868,23241
29293,-9372,8944,2660,-32768,-2444,25564
29314,-17380,12352,-472,-32768,-2252,26396
29337,-26672,16460,-3316,-32768,-2768,24569
29358,-32768,18456,-4324,-32768,-14213,19483
29382,-32768,16660,-8340,-32768,-22381,10799
29403,-32768,18176,-12276,-32768,-10078,-1464
29426,-32768,18372,-14980,-32768,1092,-13271
29441,-31412,17408,-17332,-32768,-1785,-19604
29470,-22472,15744,-20284,-32768,-4776,-20982
29492,-18612,13388,-23000,-32263,-6001,-20801
29514,-17308,11868,-26432,-28170,-3284,-21604
29535,-16252,10380,-30720,-21938,2647,-23155
29557,-12476,8700,-32768,-15266,3126,-24421
29579,-8220,5736,-32768,-8144,4295,-24181
29601,-7164,3256,-32768,-655,6459,-22756
29624,-7968,2544,-32768,7980,7718,-21540
29641,-8424,3700,-32768,16361,8268,-21040
29666,-5988,4708,-28672,21449,3954,-20598
29686,-2456,4192,-25620,25444,2992,-19865
29708,-784,4504,-24420,31527,13071,-18300
29731,-712,4836,-19672,32767,17589,-16008
29753,888,4368,-13228,32767,12855,-12924
29776,3868,2444,-10108,32767,9289,-8937
29797,6220,-56,-9220,32767,13858,-3905
29819,5924,100,-6540,32767,22785,2029
29843,3172,-1248,-1636,32767,27407,8060
29864,1396,-2028,2852,28914,26535,13123
29886,2120,-3756,5108,22530,21960,18073
29909,2028,-2908,5840,17674,26153,22856
29931,-1468,-876,9824,10858,26555,27443
29946,-4152,444,14944,93,14098,31846
29975,-8852,2860,16168,-9847,7115,32767
29995,-14544,8392,14592,-17963,5343,32767
30019,-20680,13044,12980,-24993,3274,32767
30040,-29612,16060,10940,-30373,2459,32470
30063,-32768,18072,6900,-32768,-2410,26641
30085,-32768,17896,4200,-32768,-8040,17911
30102,-32768,17120,1096,-32768,-7387,8135
30130,-32768,16408,-1792,-32768,2082,-1224
30152,-32768,16328,-5548,-32768,8281,-8709
30173,-29328,15644,-8212,-32768,7337,-13382
30196,-22912,14196,-10868,-32768,4657,-15455
30219,-19128,13780,-14844,-32768,2277,-15880
30240,-18812,14552,-17440,-32493,1498,-16219
30263,-20240,13388,-20772,-30791,142,-17209
30285,-19904,11948,-24844,-26858,1684,-19101
30303,-18272,9708,-28624,-21180,3079,-21366
30327,-16024,7448,-30372,-13793,5669,-23373
30348,-14148,4792,-31104,-5236,9755,-24551
30370,-11620,3044,-31624,3085,11273,-24705
30391,-8364,3504,-29796,10862,11719,-24024
30414,-6408,2968,-26712,17001,11268,-22732
30436,-5572,3444,-25640,21980,9479,-21197
30459,-4544,4276,-23016,26664,8362,-20046
30481,-1656,4280,-18732,29713,7409,-18383
30503,872,4020,-15156,32493,9704,-15617
30525,1276,3752,-9872,32767,17949,-12261
30547,540,2004,-4140,32767,25546,-8393
30569,1832,-484,2236,32767,24602,-4180
30591,5152,-3560,6224,29091,26080,236
30613,6224,-6536,10700,25502,32767,6280
30635,5524,-7176,16700,16133,32767,13472
30654,6272,-6460,18336,3625,21334,20934
30679,3248,-2788,16140,-6460,15906,27568
30702,-3288,2416,12520,-13524,13066,31549
30724,-10668,6492,10076,-20080,5694,32767
30737,-17864,9588,8136,-25365,173,32767
30767,-24744,12196,5696,-26946,7518,31375
30786,-32768,13328,4820,-28798,16030,25686
30802,-32768,14732,1004,-32768,6140,17426
30833,-32768,16016,-5728,-32768,-6912,8190
30855,-32768,16056,-10688,-32768,-3882,-1174
30877,-32768,16588,-15636,-32768,66,-8965
30900,-29752,16736,-21328,-32768,2645,-13685
30922,-26660,15004,-24956,-31691,-38,-16555
30942,-23960,13532,-27884,-28436,-3251,-18791
30966,-20988,12444,-30324,-22854,149,-21093
30987,-17964,10532,-32416,-16001,4620,-23044
31008,-14808,7856,-32452,-9224,4971,-24496
31031,-10728,5172,-32768,-3227,2074,-24659
31053,-7692,4744,-32768,4744,4333,-23915
31075,-5628,4164,-31052,14192,12025,-22921
31097,-3808,4200,-26852,20866,13589,-21283
31119,-2172,4528,-24080,24869,11100,-19177
31135,-124,4160,-22108,28712,11609,-17090
31163,908,3916,-18800,32767,18515,-14308
31185,2384,3188,-14048,32767,21469,-10530
31207,4804,1476,-9796,32767,22995,-5731
31229,6400,-1260,-6120,32767,29109,370
31251,4692,-2832,-2148,32767,32767,6647
31274,3636,-3572,476,28103,32767,12560
31286,2940,-3344,1844,22074,32767,17703
31313,896,-3456,4164,15762,32767,22121
31336,-1008,-2724,9412,6315,22137,26355
31360,-3464,-1204,13136,-3750,11174,29871
31384,-8208,2196,13824,-11748,10119,32029
31405,-15860,6364,13144,-18686,9970,32184
31427,-25744,8824,10136,-26032,4570,29905
31450,-32352,12444,5172,-31654,-2800,24226
31470,-32768,13380,2796,-32768,-1528,16268
31493,-32768,14580,312,-32768,-5177,7701
31515,-32768,16760,-3892,-32768,-10588,184
31536,-32768,17536,-10204,-32768,-13371,-5454
31560,-32768,17584,-16700,-32768,-12920,-9447
31581,-32244,17152,-20372,-32768,-9397,-13080
31603,-30084,16000,-21968,-32768,-6838,-17307
31625,-25932,15472,-23432,-30410,-4851,-21331
31648,-21216,14700,-25464,-26383,-1966,-24240
31670,-17588,12944,-29476,-21253,-59,-25716
31685,-14648,11088,-32488,-13697,2424,-26726
31713,-11260,7588,-32768,-5680,5398,-26859
31735,-8764,4812,-32452,2753,9628,-26150
31751,-7788,2984,-30772,10294,11287,-24949
31779,-6200,3040,-29124,17048,12812,-23497
31801,-4544,3152,-25516,22090,10425,-21672
31824,-3004,2536,-22132,24850,5358,-19410
31845,-1032,2524,-19708,27270,2769,-16810
31867,-748,1752,-15580,30635,8547,-13902
31889,-1776,1500,-11408,32742,14201,-10948
31909,-2748,520,-7116,31982,12345,-8231
31933,-352,-1320,-4728,29435,7381,-5684
31954,2516,-2424,-1948,28911,12382,-2538
31977,3980,-3960,1512,29639,27575,1370
31999,2672,-7016,7300,27091,32767,6552
32021,4292,-7764,10344,19106,31189,12644
32042,5992,-6908,10600,11720,30431,18757
32064,3816,-4744,10720,4825,32767,24552
32087,-340,-1208,12424,-5062,23574,30029
32109,-3580,2984,12736,-14984,6958,32767
32131,-8188,7672,9460,-20910,3324,32767
32147,-17640,10916,4956,-22926,10431,32767
32176,-28656,13308,2260,-25208,13775,32767
32197,-32768,13912,376,-28354,7755,26224
32218,-32768,14908,-2812,-31678,-1560,15759
32241,-32768,13572,-7628,-31666,-1284,4063
32263,-32768,13304,-9716,-29888,447,-5797
32285,-32576,11800,-9868,-30042,-3927,-11187
32307,-24084,10672,-12020,-30280,-6532,-12612
32327,-20892,9472,-14108,-29245,-4456,-12516
32352,-21176,9676,-15688,-28959,-5939,-12887
32374,-20508,10004,-17400,-27832,-5778,-13896
32396,-19364,9344,-20136,-24486,-457,-15171
32418,-17352,8272,-22604,-20125,2710,-16349
32437,-15932,6792,-24536,-14986,4656,-16968
32461,-15608,5240,-27052,-9215,4300,-17538
32483,-15024,3788,-28264,-2353,6115,-18371
32505,-13868,2788,-28196,4406,6945,-19085
32527,-11848,2544,-26628,9977,4826,-19123
32540,-10304,2896,-24660,14741,3560,-18617
32571,-9948,3648,-22068,18927,3110,-18251
32590,-8356,3992,-19512,21955,2172,-18312
32615,-6396,3260,-17776,25293,5764,-17937
32637,-4700,3496,-14724,28630,10814,-16645
32652,-2856,2736,-11296,29812,10855,-14412
32681,-388,2196,-8228,29806,10324,-11153
32703,976,340,-4844,30075,15395,-7535
32724,1560,-1796,-444,29394,23271,-3045
32747,3012,-4464,3948,25054,21690,2104
32769,2672,-6860,5236,20256,22081,7194
32792,3484,-5388,5160,17010,30971,11683
32813,1176,-5332,9520,11491,32767,16770
32835,716,-3412,13524,1333,17952,22337
32857,-456,-188,14052,-6740,13505,27242
32879,-6012,3096,12000,-13060,15269,30438
32901,-14080,6956,8996,-18554,14401,31256
32923,-22592,8260,5692,-23739,10704,29109
32945,-29820,10768,-716,-26942,4112,23846
32968,-32768,9180,-4284,-25519,7106,15623
32989,-32768,8556,-4024,-25350,7840,5648
33003,-32768,8388,-3708,-29299,-1256,-2855
33030,-31832,9184,-6260,-32768,-10925,-7721
33052,-25520,9960,-10716,-32768,-11200,-9272
33076,-23180,11648,-15376,-32768,-7958,-9348
33096,-23644,11580,-16976,-31432,-4582,-10601
33121,-21660,10968,-17052,-29030,-2372,-12476
33144,-18652,10900,-18060,-27627,-2065,-13668
33164,-18256,10560,-21736,-25617,-2156,-14238
33187,-17684,9536,-28052,-20788,-230,-15114
33210,-16136,8436,-31028,-12468,5864,-16354
33231,-14748,5000,-30164,-4174,9637,-17491
33253,-12212,2784,-28388,3084,11465,-17778
33275,-10524,1680,-26960,8927,10433,-16947
33298,-9768,1840,-24884,13592,7869,-15876
33318,-8684,2224,-22812,17008,5255,-15039
33335,-6548,3092,-21920,20352,4758,-13980
33363,-5112,2620,-20624,24066,5333,-12266
33385,-4216,2708,-18080,27719,8480,-10391
33407,-3908,3632,-14608,30787,14005,-8196
33430,-3296,3056,-10076,29963,10761,-5447
33452,-1184,1508,-7696,27867,7414,-2357
33474,228,104,-5532,27264,12346,971
33487,-448,-916,-2592,26698,20135,4698
33513,984,-2464,836,22297,16492,9415
33539,3032,-2604,2732,17113,11875,14673
33561,1360,-2628,3004,13512,14818,19775
33582,-1300,-844,4104,10589,19040,23981
33603,-4880,112,7604,5182,14681,27358
33627,-8284,2168,9472,-690,10307,29696
33649,-14432,3816,11108,-6172,5676,30650
33671,-21772,5476,11624,-10432,7037,29367
33693,-29224,6972,11096,-15155,7865,25208
33715,-32768,8672,9892,-20617,4456,18628
33731,-32768,9592,7292,-26032,370,11077
33759,-32768,11376,2744,-30140,16,3538
33782,-32768,13180,-1804,-32768,-1773,-2727
33804,-30080,13560,-7092,-32768,-4524,-6594
33826,-25752,13440,-13392,-32768,-3712,-8412
33848,-23788,12548,-18624,-31681,-2403,-9372
33870,-23716,11436,-22144,-27509,-348,-10937
33892,-22744,11808,-23972,-22361,3235,-13378
33914,-20336,10108,-24304,-17777,5381,-15528
33935,-17604,8392,-24420,-14016,3834,-16473
33956,-15340,7224,-25956,-9538,3480,-16667
33979,-14384,5756,-27532,-3225,7345,-16786
34002,-13492,4624,-27928,3191,8328,-16868
34023,-12228,4004,-27744,9209,7865,-16654
34042,-10692,4124,-26624,15208,7883,-16587
34057,-8368,4976,-24340,20469,7343,-16252
34089,-6028,4988,-22612,24855,7014,-15373
34111,-3836,5128,-20208,29227,9632,-14063
34133,-1924,5152,-16824,32767,18282,-11747
34155,-1900,4908,-11568,32767,23239,-8392
34177,-1716,3512,-4940,32767,16382,-4436
34198,1180,936,-700,29477,6509,-517
34219,4212,-2028,1896,26262,9771,3866
34235,4884,-3336,3840,24802,23246,9233
34266,1928,-3512,9248,19054,23187,15319
34287,476,-3336,12808,8485,6742,20794
34308,-252,-2280,13028,1145,2182,25080
34332,-4600,-68,12572,-2770,8585,27804
34353,-11588,2728,13216,-7980,8582,28949
34375,-19360,5124,12976,-14224,4056,28169
34396,-26412,6668,11120,-18953,3655,25102
34419,-32768,8600,8260,-22640,4762,19490
34441,-32768,10292,5568,-26461,2633,11773
34463,-32768,10808,1884,-30348,-1166,3975
34484,-32768,10916,-2812,-32184,-828,-2235
34507,-28892,10588,-7440,-32620,-516,-5664
34523,-25204,10068,-11972,-32060,-1891,-7080
34552,-22864,9676,-17232,-30012,-386,-8041
34574,-22704,10124,-22336,-26813,1151,-9396
34595,-23728,9648,-26688,-22460,1988,-11371
34619,-23052,9720,-30096,-16527,4071,-13749
34637,-20996,9160,-31416,-9617,6610,-16082
34658,-18976,7076,-31256,-2633,9016,-18043
34682,-16724,6140,-29880,3416,7798,-19612
34704,-13432,5356,-29296,8873,5180,-20521
34718,-9908,5596,-28472,15046,5015,-20698
34750,-6884,6100,-26052,21158,5596,-20081
34771,-4936,6528,-21792,26154,7056,-19095
34792,-4304,6032,-17772,30736,12751,-17769
34814,-4520,5856,-13888,32767,15889,-15995
34837,-3128,5056,-10464,32767,16192,-13946
34859,-1664,3988,-6172,32767,17498,-11266
34881,136,712,-1796,32104,14995,-7601
34902,3456,-2340,1908,28780,14277,-2973
34925,6960,-5248,4384,25776,20262,2856
34947,6320,-7740,7328,22757,30354,9735
34963,3868,-7840,11396,15185,28128,16405
34991,3548,-6256,13012,4862,17787,22370
35013,868,-2936,15260,-3968,12430,27587
35035,-3376,44,14872,-12384,9589,31583
35056,-7872,5320,11384,-18814,10345,32767
35078,-14752,8716,6224,-24354,10921,32767
35102,-23664,11976,1656,-29391,5125,31514
35123,-32768,11524,-2952,-31916,-3927,27118
35145,-32768,12880,-6012,-31943,-14682,18387
35167,-32768,10180,-7572,-27433,-10804,5905
35190,-32768,9540,-5792,-24113,-3669,-5581
35208,-32768,9144,-5356,-22956,958,-11951
35231,-24216,9000,-6272,-23959,350,-13723
35253,-19440,8324,-7476,-25603,-1264,-13453
35275,-17968,7548,-10004,-27137,-2754,-13083
35300,-18440,8044,-14144,-27019,-2781,-13189
35322,-19364,9420,-18528,-24685,-1616,-14269
35341,-18964,8452,-21436,-21169,-798,-16114
35358,-17360,7348,-24464,-15798,3068,-18037
35387,-15740,5640,-26116,-9693,6235,-19270
35409,-13544,4532,-26348,-4098,5460,-19809
35430,-10680,3024,-26276,1872,7212,-19662
35453,-7964,2052,-26352,7541,9082,-18696
35476,-5824,1388,-25620,12951,9655,-16897
35497,-4884,1192,-23624,17187,7604,-14974
35519,-3848,1148,-22100,20207,5815,-13295
35535,-2292,1216,-20504,24073,8311,-11331
35563,-1108,1644,-16772,27581,11767,-9097
35585,100,1220,-12176,30172,17807,-6399
35607,1852,132,-5944,29058,17431,-2283
35629,4380,-2684,-2288,25246,13797,2932
35651,5012,-4204,-492,22175,17494,8671
35670,2756,-3760,-432,19853,25653,13861
35695,-304,-2060,392,15401,24612,18416
35716,-1816,-1884,1272,9166,14131,22409
35737,-3648,-1232,2144,4860,9501,25516
35758,-6756,1612,2856,2565,13402,27518
35781,-12496,3488,4212,-1049,13617,28195
35803,-18188,4456,4712,-5344,10021,27169
35818,-23288,5172,5112,-8969,8812,24229
35849,-27492,6220,5640,-12533,9165,19833
35870,-31552,5788,5036,-17397,4078,14582
35892,-32768,5388,3588,-21989,-419,9584
35915,-32768,6568,672,-24997,-2409,4819
35936,-32720,7760,-1528,-26709,-2198,235
35958,-30848,8196,-3856,-27629,787,-3980
35981,-28228,9300,-7032,-28958,425,-7296
36004,-25708,10612,-10740,-29853,-1315,-9684
36026,-24684,11836,-16328,-29725,-2581,-11615
36046,-25040,13400,-24312,-26714,-282,-13938
36069,-24656,13524,-31088,-20295,4634,-17633
36092,-22692,11516,-32768,-11681,10167,-21383
36112,-19208,9608,-32768,-3379,10741,-24246
36134,-15504,7796,-32020,3215,8483,-26067
36157,-11512,7144,-29108,7817,4460,-26816
36179,-8224,6456,-28292,12613,3793,-26583
36201,-6900,6384,-26984,18676,7031,-25994
36222,-5196,6860,-23488,24307,9531,-25301
36244,-3000,5732,-18092,27400,8727,-23992
36267,888,4788,-13984,28416,6625,-21186
36287,4596,1960,-10276,27394,2554,-17051
36312,8200,-1420,-6712,26445,3464,-11648
36333,10280,-5444,-3232,25756,9465,-5618
36352,9736,-6536,-868,25115,19039,626
36377,7888,-7288,1820,21616,19860,6803
36397,7404,-6980,2684,16452,13551,12622
36413,7288,-6804,2740,12606,10761,17989
36443,6160,-5516,2752,10393,14031,23152
36464,2828,-2884,3656,7928,16398,28065
36486,-576,-436,6008,3237,11790,32293
36501,-4916,2200,7576,-2129,5787,32767
36532,-11184,4312,6972,-6472,2208,32767
36553,-19936,7536,5724,-8810,1606,32767
36575,-27184,8916,5568,-9183,9412,32767
36597,-32768,8408,6520,-11996,11773,27267
36619,-32768,9800,4260,-16983,1709,17719
36641,-32768,8684,2760,-19145,-749,5923
36663,-32768,9184,2812,-20523,1564,-4004
36685,-31928,9128,1964,-22799,789,-9983
36707,-23228,9496,504,-24926,1179,-12507
36728,-17436,8924,-1924,-27170,3584,-12981
36751,-14936,8492,-5776,-30219,1396,-12060
36773,-14868,9160,-13356,-31841,-1388,-10384
36796,-17436,11280,-21096,-30438,-1437,-9532
36817,-20944,10472,-27804,-26424,-737,-10522
36836,-22164,8356,-31620,-19473,2461,-13326
36858,-20796,6192,-31736,-10995,8156,-16535
36883,-17460,5264,-30208,-3606,11343,-18833
36905,-13860,4380,-27544,1072,7321,-19459
36926,-10384,3184,-25404,4233,1667,-18866
36949,-7548,2036,-23924,8025,487,-17680
36970,-5956,1536,-22200,12654,3204,-16151
36992,-5448,1260,-20704,17179,6011,-14704
37014,-5672,1292,-18560,21299,8355,-13475
37036,-4592,1092,-16940,23809,6609,-12251
37058,-1424,1492,-15216,26441,7848,-10290
37074,596,940,-11756,29729,14841,-7479
37103,940,-584,-6876,31418,22467,-3747
37124,740,-2328,-2892,30084,24572,808
37141,1288,-4024,-292,26307,21155,5624
37169,2812,-4060,1204,22614,20001,10462
37190,1964,-4088,2936,19653,25269,15382
37213,-2948,-4364,4912,14542,24935,19764
37235,-6916,-2612,5852,7762,15966,22819
37257,-9556,-116,6516,1463,8633,24689
37279,-12340,1200,7676,-3197,6313,25680
37301,-16444,1564,9792,-6915,6768,25600
37318,-21972,2220,11792,-11255,8464,23818
37345,-27012,2932,12600,-17035,8784,20085
37367,-29864,5292,9844,-24520,3784,15085
37387,-30880,7612,4404,-30558,1223,9591
37403,-31476,10072,-3028,-32768,814,4158
37431,-31288,12128,-10728,-32768,-1216,-277
37446,-32768,11708,-18364,-32768,-4629,-3502
37477,-32768,10236,-22580,-31459,-13251,-6447
37497,-32768,8868,-23068,-27528,-15516,-10243
37520,-30392,8452,-21092,-22190,-9828,-14691
37541,-25256,8368,-19692,-17827,-4648,-18145
37564,-20536,7772,-18836,-14361,-1521,-20200
37587,-16732,6808,-18372,-11745,-694,-21104
37608,-13556,5840,-18840,-9531,-1370,-21103
37632,-10792,4648,-20060,-7120,-1820,-20394
37648,-9228,2720,-22388,-3185,600,-19309
37675,-8104,1796,-24400,2593,5092,-18390
37697,-6772,548,-24160,8991,9204,-17621
37719,-4984,-196,-22520,14637,11623,-16506
37741,-3152,-556,-20088,18655,11448,-14694
37763,-1556,-964,-17252,21024,8910,-12163
37785,808,-1144,-14860,23073,9841,-9098
37807,1860,-2124,-11864,24794,13242,-5475
37829,2608,-2744,-9088,25532,17008,-1226
37846,2556,-3220,-6424,25335,20596,3469
37873,1876,-3120,-3192,23761,22529,8326
37895,912,-2756,1384,19484,19562,13138
37917,-624,-2960,5272,12789,12943,17705
37939,-3392,-1724,7868,6515,9682,21522
37960,-7700,-404,10192,569,8046,23991
37983,-11688,1784,10844,-5447,6756,24961
38004,-17676,3404,9376,-10102,8532,24393
38026,-24388,4256,7792,-14024,7987,21555
38048,-31172,3716,6440,-17585,6360,17328
38070,-32768,4540,4300,-21529,-829,11662
38087,-32768,4808,1524,-23068,-2013,4908
38114,-32768,3984,-444,-23340,605,-2058
38136,-31148,3712,-1956,-24186,975,-7196
38159,-26132,3592,-4924,-26225,-2772,-9723
38182,-21584,3672,-8752,-27100,-5091,-10637
38197,-19264,3600,-13036,-26209,-2752,-11081
38224,-18228,4192,-18124,-24079,-581,-11509
38247,-18172,4280,-22648,-20332,405,-12044
38269,-17084,4668,-26048,-14941,4489,-12989
38291,-16544,4644,-27604,-8832,8899,-14000
38312,-16264,3288,-26968,-4297,7711,-15057
38335,-14560,2684,-27648,-414,5434,-15957
38357,-12188,2620,-28668,4127,3711,-16349
38378,-9928,2264,-28784,8972,1253,-16022
38401,-7464,2784,-27300,14736,2329,-15346
38423,-5732,2656,-24120,20122,5220,-14347
38442,-4492,2488,-22172,24548,8320,-12801
38467,-3280,2504,-19524,27227,5905,-11017
38490,-556,2504,-15048,28938,4903,-8962
38509,1748,1096,-10336,29864,7468,-6043
38532,3336,-364,-6400,30643,14735,-2205
38555,3584,-1212,-2836,30210,22451,2348
38577,2976,-2032,1424,27000,24984,7361
38599,1572,-3412,5752,21597,23548,12279
38620,1020,-3912,8984,13349,16059,16593
38642,100,-3332,8696,5534,12500,20843
38664,-2336,-1360,7380,-544,10664,24498
38687,-5300,320,7396,-4630,11472,27284
38702,-9228,2436,7936,-8562,12403,29117
38731,-14932,5088,8204,-13276,9745,30201
38752,-23316,6496,7316,-17818,6979,29640
38775,-31920,8956,5284,-20945,8336,26324
38797,-32768,12320,2320,-24225,5669,19419
38813,-32768,13464,-1264,-27157,2908,9372
38841,-32768,13860,-4900,-28637,4327,-1912
38862,-32768,14880,-8612,-29752,3469,-10780
38886,-28772,15516,-12780,-30580,304,-15510
38908,-21344,14976,-16952,-29864,-964,-16991
38930,-18028,12768,-20844,-27861,-900,-17057
38952,-18200,11296,-26560,-24471,-456,-17382
38974,-18780,10080,-30932,-18703,2310,-19145
38992,-16456,9116,-32768,-12187,3459,-21147
39014,-12840,6460,-31908,-5596,5038,-21994
39036,-10096,4116,-30128,-506,2411,-21249
39052,-8028,2272,-28324,4478,1297,-20017
39083,-6756,1468,-27584,9951,3339,-18635
39104,-6020,1448,-25892,15583,5183,-17248
39118,-5420,2064,-22448,19699,4145,-15956
39149,-4328,1652,-19156,21996,654,-14673
39171,-1268,2276,-17536,24626,2584,-13204
39192,1256,1548,-15028,27308,6754,-10873
39213,3252,1044,-11316,29002,10544,-7224
39237,4544,-240,-7324,28894,12232,-2691
39258,4768,-1016,-3352,27362,12605,2224
39281,5116,-2640,-48,23759,8692,7145
39303,5572,-3824,2248,20690,10103,11883
39325,3592,-4352,3984,17327,13212,16846
39347,-16,-2912,3988,13855,13575,21006
39368,-3432,-804,5128,10297,12724,24119
39390,-6344,1260,7668,5903,9825,26412
39412,-9736,2380,10472,1407,8052,27860
39435,-13908,4672,12548,-3143,9598,28245
39457,-19716,6360,13676,-8521,12697,26731
39479,-26104,7376,11852,-15693,11335,23490
39497,-30268,9452,7348,-22803,4471,19159
39520,-32768,11952,2568,-26627,1156,14304
39545,-32768,12600,-1744,-28299,1151,8707
39565,-32768,11952,-5660,-29057,1027,2702
39588,-32768,11724,-9324,-28685,33,-2909
39611,-32768,12032,-12020,-27164,-294,-7776
39634,-28732,10820,-14332,-25395,1352,-11769
39654,-24892,10432,-16576,-23530,2861,-14549
39677,-22348,10208,-19468,-22127,119,-15937
39699,-20520,10508,-22832,-19477,-678,-17096
39719,-18580,9232,-25012,-14829,2408,-18411
39742,-16360,6756,-25848,-9495,4998,-19295
39765,-13796,5420,-25524,-4719,2913,-19407
39787,-11828,3688,-24516,343,3853,-19087
39809,-9824,2428,-23696,5525,6587,-18505
39831,-8048,1400,-22496,10104,7277,-17440
39853,-6460,716,-20772,13362,4509,-15937
39875,-4728,496,-18500,16177,2144,-14222
39897,-3496,52,-16448,19120,3898,-12208
39919,-2748,-404,-13932,21506,6202,-10132
39937,-1780,-732,-11472,23004,8036,-7781
39958,-864,-1048,-8832,23601,9839,-4956
39985,-432,-1360,-6816,23324,10534,-1703
40007,-532,-1724,-4512,22740,11174,1604
40029,-384,-2664,-1812,21126,10531,4864
40046,-252,-3656,1372,19678,14953,7946
40073,-1460,-4652,3268,17516,22249,10942
40095,-3992,-4060,3996,13821,24518,13560
40117,-5328,-3284,6316,8280,19057,16000
40139,-6068,-1816,8568,1933,13307,18499
40161,-8412,-12,9808,-4554,10264,20852
40183,-13928,1124,8744,-10481,9176,22094
40205,-19800,3020,6816,-15874,5112,21333
40227,-24856,4444,4504,-19708,2425,18669
40241,-28908,5780,1316,-21446,3674,14364
40271,-32768,5844,-1412,-22523,2577,8636
40292,-32768,6648,-3212,-22973,1041,2478
40315,-31708,7880,-4108,-24123,-1164,-2626
40336,-27736,8212,-5988,-25410,176,-6341
40359,-24488,8324,-9668,-26722,-31,-8488
40381,-22988,9548,-14840,-27391,-2160,-9534
40404,-23720,9984,-20628,-25786,-1411,-11201
40425,-23636,10452,-25964,-22025,317,-14056
40447,-21216,8572,-29740,-16806,2040,-16671
40469,-17020,7760,-32768,-10613,3555,-18191
40491,-13052,5580,-32768,-3588,6283,-18554
40512,-9972,3692,-32420,2878,6923,-17934
40535,-7460,2580,-30300,8462,5802,-16688
40557,-5196,2136,-27884,13474,5252,-15111
40578,-3208,2044,-25584,18293,6437,-13314
40601,-1492,1944,-22616,22368,7702,-11145
40620,680,1548,-19748,25746,9522,-8435
40646,2424,1424,-16456,28649,13063,-4998
40666,2928,1684,-12368,30332,16326,-988
40689,1628,948,-7796,29347,13521,3251
40709,1684,924,-4312,26234,7769,7010
40732,1816,-404,-888,23456,6915,10425
40753,1464,-568,2376,20961,12123,13770
40777,-784,-852,5912,17261,18432,17105
40799,-3284,-384,9252,10166,15669,20064
40821,-5480,-20,10916,2164,10955,22385
40843,-9356,1144,10096,-5004,9397,23742
40864,-14624,3540,7708,-11472,4884,24129
40886,-20532,5724,4152,-15811,-1302,23382
40909,-26268,6480,2032,-17200,-1647,20671
40931,-31224,6444,1028,-16839,4773,15861
40953,-32768,6680,1000,-18588,3702,9856
40975,-32768,7084,-848,-21770,-1582,4161
40997,-32768,8132,-3684,-23940,-4800,-1200
41018,-32308,8704,-6168,-24450,-3858,-5685
41041,-29516,8936,-8920,-24594,-2153,-9075
41064,-27444,9444,-12624,-24524,-2028,-11678
41085,-25488,9484,-15792,-23934,-3311,-14012
41107,-22628,10004,-19584,-21703,-670,-16133
41130,-19596,10412,-23268,-17328,5645,-17957
41151,-17384,8616,-25840,-13571,5343,-19018
41173,-14872,6388,-28104,-10019,2455,-19347
41193,-12336,4620,-29788,-4968,3005,-19452
41215,-10176,2492,-30520,1476,5466,-19296
41236,-7864,1216,-28924,8123,7371,-18766
41260,-5496,724,-26128,13345,6716,-17378
41281,-3916,580,-23784,17674,6541,-15692
41303,-1932,728,-21316,21494,7232,-13877
41326,-268,588,-18176,24816,9247,-11556
41349,628,456,-14128,26964,10400,-8548
41371,512,-280,-9528,25968,4420,-5223
41393,1744,80,-6260,23888,-245,-2132
41415,2380,-1740,-3112,22125,491,870
41437,3072,-2672,-616,20888,5872,4128
41458,3628,-3032,2884,19499,14063,7962
41481,2580,-4164,6400,16265,20804,12341
41503,1480,-4436,9916,10385,21658,17061
41524,224,-2516,11808,1784,13854,22221
41541,-2968,852,11508,-6191,7559,26959
41569,-9504,4356,9772,-12271,4171,30326
41591,-18684,7144,7464,-16250,2731,30860
41613,-29076,9096,5184,-18590,4546,27976
41632,-32768,9496,3212,-19806,10518,21241
41657,-32768,9600,128,-22805,6208,11187
41679,-32768,9884,-3196,-24766,2714,803
41702,-32768,10356,-6256,-25375,2056,-7993
41718,-32768,9876,-9016,-25699,1783,-14041
41745,-25344,9456,-13636,-25735,309,-16927
41767,-19848,9212,-19052,-24697,-2104,-17401
41786,-16936,8028,-24324,-21709,-1881,-17218
41811,-15456,6416,-28168,-16413,2638,-17499
41833,-13652,5192,-31144,-10778,5023,-17989
41855,-11780,3608,-32768,-4624,5616,-18156
41876,-10184,2416,-32768,1883,4934,-17981
41898,-8084,2184,-32360,8558,4315,-17585
41919,-5764,2512,-28788,14234,3347,-16607
41942,-3808,2388,-24780,19038,4158,-15101
41965,-1992,2192,-20928,22369,3670,-13129
41987,-476,1780,-17796,24741,3638,-10957
42008,376,1852,-15032,27118,6250,-8853
42030,788,1964,-10348,28692,8969,-6308
42053,1856,880,-4360,27231,6451,-3055
42075,3760,-1776,380,23277,845,1091
42097,5520,-4244,3288,19398,602,5940
42118,5544,-4592,4876,16080,5136,11277
42141,4208,-4456,5876,12884,11205,16323
42163,1416,-3656,5908,9384,17063,21047
42185,-2508,-1592,5764,4914,16653,24825
42206,-6380,1012,6112,-840,8785,27861
42229,-10488,3784,7168,-5114,5239,29915
42252,-16776,6336,8300,-8388,8010,30478
42268,-27904,7660,7164,-12514,8558,28761
42292,-32768,10348,5164,-16970,2173,23694
42315,-32768,9212,4696,-20123,3438,15355
42337,-32768,10008,828,-23191,5437,4759
42361,-32768,11900,-3840,-24878,6558,-4825
42383,-32768,12188,-7784,-25587,4635,-11393
42403,-29356,11744,-10524,-25752,1633,-15005
42425,-24680,10760,-13208,-25277,-95,-16877
42441,-21460,8884,-17776,-24092,-887,-17834
42472,-19064,7572,-23692,-21240,-1245,-18710
42493,-16236,6072,-27760,-16097,904,-19704
42508,-13120,4056,-29928,-9154,5345,-20428
42538,-10020,1980,-31324,-1480,8994,-20550
42558,-6888,1152,-30668,5872,10668,-19749
42579,-4760,680,-28924,12180,11202,-18271
42603,-2952,824,-26876,16992,8880,-16340
42625,-548,1752,-24116,20800,5861,-14115
42647,1548,1616,-20900,24440,5577,-11407
42668,3276,1376,-16872,27953,9277,-8116
42690,3872,1264,-11936,30499,15011,-4272
42713,3572,1072,-5620,30004,17095,700
42736,3288,-224,-216,24939,8146,5754
42757,3076,-1588,3380,19955,4163,10279
42775,1152,-2100,7248,15377,5904,14145
42797,-1244,-2536,10852,9581,6623,17037
42823,-3516,-2564,14256,2119,4618,19309
42845,-6300,-1668,15232,-5999,1024,21583
42866,-10088,456,13640,-12154,-135,23260
42888,-16776,2832,9760,-15469,1881,24132
42908,-24236,5756,5992,-16264,3932,22866
42933,-32128,6000,5248,-16835,7341,19277
42946,-32768,5920,4332,-19999,5877,13739
42977,-32768,7868,-112,-24359,-1781,6582
42998,-32768,8560,-6440,-25653,-2315,-1187
43020,-32768,9504,-12324,-24344,16,-8250
43042,-31132,8868,-16220,-22084,2021,-13508
43064,-25052,7816,-19812,-20535,-482,-16351
43086,-19324,6604,-24432,-18201,-2604,-17272
43109,-15768,4928,-28204,-13364,-28,-17341
43131,-13472,2388,-30616,-7523,2574,-17169
43153,-10856,780,-31820,-1075,4093,-16667
43175,-8780,-544,-30524,5778,6913,-15846
43197,-7208,-772,-27488,11568,7860,-14769
43219,-5480,-872,-24264,15515,5399,-13254
43241,-3208,-1080,-23012,18574,3057,-11354
43263,-1104,-640,-21716,22569,5025,-9141
43285,440,-88,-18344,26657,9160,-6482
43308,1060,692,-13700,29514,13553,-3237
43328,940,936,-8556,30414,16103,448
43350,440,412,-4612,29084,16730,4252
43370,584,-236,-1128,27072,19708,7995
43394,-292,-640,2408,23499,22861,11768
43417,-2428,-1260,5936,17817,23011,15623
43436,-4220,-800,8428,9743,14561,19271
43459,-6788,588,9384,3593,13149,22182
43481,-11008,2100,10348,-2194,14661,23717
43502,-16832,4032,12028,-9117,12766,23828
43526,-23340,6148,11780,-17022,6968,22344
43549,-28776,8240,8316,-23452,3321,18880
43562,-32768,9304,4268,-27631,1040,13334
43593,-32768,10004,772,-30394,-926,6993
43614,-32768,10684,-2772,-32729,-2472,850
43637,-32768,12004,-7900,-32768,-3608,-4473
43659,-31284,13136,-13316,-32768,-4686,-8301
43682,-29008,13400,-18076,-32768,-7079,-11100
43704,-28772,12664,-23664,-30113,-7651,-13569
43719,-27100,12604,-27604,-24735,-4915,-16983
43747,-24548,11720,-28080,-18347,1070,-20744
43769,-21164,10676,-29708,-12404,5320,-23774
43785,-17324,9300,-30164,-6256,6922,-25560
43813,-12944,6468,-29552,-1286,4382,-26223
43835,-8460,4572,-28984,3983,2983,-25823
43857,-5056,3120,-26820,10020,4615,-24585
43880,-2628,1900,-23688,15975,7771,-22690
43902,-340,1796,-20212,21209,10894,-20128
43913,1160,1276,-15968,24633,11594,-17279
43943,3248,668,-11524,26295,12601,-13952
43964,5312,-888,-6696,25914,12951,-9455
43986,6840,-3112,-2972,24220,13675,-3915
44008,7200,-4708,-112,21029,12964,2136
44031,6972,-5372,2240,17346,12689,8205
44053,6736,-5808,4448,12030,7890,14171
44076,4928,-5640,4716,7022,4791,19532
44098,1904,-3348,3000,4190,6234,23709
44121,-1548,-720,2992,2657,9380,26852
44142,-5708,1440,5972,-418,8467,29125
44164,-11164,1984,8064,-5032,6752,30413
44186,-18236,3556,7256,-9942,3471,30096
44208,-25128,5816,6112,-14031,-1776,27638
44231,-30644,7232,4532,-16724,-1468,23287
44252,-32768,8052,3976,-19908,-2703,16739
44274,-32768,9344,852,-21686,-573,9612
44296,-32768,11236,-3436,-23637,-2452,2464
44319,-32768,11596,-8092,-24491,-2332,-3905
44342,-32768,11372,-12532,-24556,-2503,-9555
44364,-30864,11128,-16592,-23608,-2958,-13978
44386,-26284,10196,-21440,-21198,-1622,-17212
44407,-21672,8612,-26604,-16849,602,-19470
44429,-16840,5832,-30048,-10516,2252,-20500
44446,-13184,2764,-31604,-2774,4565,-20321
44473,-9992,768,-31212,5117,6943,-19454
44496,-7552,-100,-28680,12350,9080,-17947
44514,-5808,-328,-25640,17990,8786,-15811
44530,-4156,-32,-22004,21644,5558,-13358
44558,-2888,492,-18564,24577,4566,-10810
44583,-2096,160,-15100,26777,5952,-8172
44604,-1088,796,-11708,28551,9136,-5262
44627,-888,696,-7468,29710,14398,-1825
44648,-780,256,-3244,29338,18621,1964
44669,-508,-300,2260,26114,17250,6244
44693,492,-1852,7176,19641,9132,10880
44714,456,-2140,9928,13740,7646,15466
44736,-2024,-1724,12400,8283,10367,19414
44758,-5744,-380,13912,1334,8729,22437
44781,-8828,2204,13244,-5096,5554,24456
44798,-13232,4180,12560,-9606,6937,25242
44825,-19132,5384,11304,-13861,8500,24152
44847,-24864,6812,9552,-17764,10120,21303
44869,-29936,8400,6480,-22109,6638,17034
44891,-32768,9104,2908,-25123,3561,11609
44913,-32768,9508,-1524,-25968,4158,5026
44935,-32768,9640,-5712,-26399,3675,-1292
44957,-32768,10008,-10664,-26206,1885,-6785
44980,-31504,10004,-15476,-24950,189,-11122
45002,-28688,10212,-19164,-22363,192,-14657
45023,-25876,10232,-22332,-18454,3094,-17931
45045,-22924,9400,-25280,-13206,6776,-20873
45067,-19760,8040,-26740,-8529,5113,-22927
45086,-15948,6796,-27228,-4260,1879,-24299
45110,-12592,5484,-28540,1795,5074,-25001
45133,-10520,4668,-28400,8777,8989,-25323
45152,-8476,3952,-25892,14703,9791,-25370
45176,-5188,3740,-23900,19735,10481,-24596
45198,-3192,3084,-20376,23798,10537,-22913
45220,-644,2660,-15692,26107,8963,-20365
45242,1684,488,-11064,26592,6536,-16857
45257,4520,-1588,-6664,26216,6484,-12530
45287,6596,-4308,-1772,24711,7480,-7239
45309,8908,-7084,2448,21328,7512,-1010
45329,9424,-8624,5540,16868,8178,5697
45352,8212,-9128,6928,12651,11257,12014
45374,4788,-8220,7072,7631,10698,17538
45396,2256,-6312,5004,3039,6958,21840
45419,288,-3648,3908,298,5401,25512
45440,-2216,-876,4820,-1717,6614,28374
45462,-6248,868,6384,-4185,10501,30770
45485,-13052,2424,6500,-8298,8837,31667
45507,-17912,4780,5708,-11979,6326,30644
45529,-22568,6616,5300,-14410,9622,28337
45552,-30176,6704,5156,-17693,11748,24424
45573,-32768,8704,2512,-22446,4548,18774
45595,-32768,10748,-220,-25832,-1872,11335
45614,-32768,11628,-3320,-27264,-3166,2183
45639,-32768,13584,-7124,-26721,-188,-6332
45660,-32768,14068,-10856,-25753,1783,-12781
45674,-29440,13444,-14736,-24969,1109,-16962
45705,-24760,12392,-20916,-22766,3263,-19653
45727,-22616,11552,-28720,-18809,4067,-21908
45749,-19844,8820,-32768,-12155,2994,-23920
45771,-16860,5776,-32768,-3604,4936,-25678
45793,-13416,4432,-32768,5938,9757,-27255
45815,-10228,4316,-30412,14684,13870,-28143
45837,-6456,4160,-25584,20997,14913,-27694
45858,-2848,4392,-22052,25554,13240,-26045
45880,-948,4116,-17776,29310,13193,-24087
45903,2516,2756,-11700,30397,10715,-20752
45925,7156,-488,-8344,29834,7891,-15387
45947,9056,-3320,-6224,30072,10778,-9079
45968,8712,-3968,-3232,30970,17214,-2878
45991,7136,-4264,1268,29755,20961,2944
46013,4480,-4844,4804,26697,23394,7878
46035,3516,-5536,7888,22595,26192,11949
46056,2816,-6028,11756,16637,27928,16668
46080,-860,-6324,13316,7133,19115,21812
46102,-3308,-3648,11148,-981,8216,25996
46122,-6224,-1972,10944,-6428,5716,29180
46145,-10180,396,12284,-11812,5917,31196
46164,-15888,3828,12792,-18077,6313,31625
46186,-23736,7228,8428,-24359,6151,29889
46209,-31364,10484,1616,-29244,-1092,25634
46233,-32768,11564,-2088,-29140,2942,19333
46254,-32768,11220,-4004,-27155,16329,10770
46277,-32768,11896,-8276,-28062,13609,718
46299,-32768,12508,-12040,-28895,6322,-8193
46321,-32688,12488,-14924,-28933,1980,-14389
46343,-27500,12356,-18884,-27713,714,-18322
46363,-23848,10964,-22560,-24881,1157,-20992
46387,-20316,9540,-24848,-21311,724,-23108
46408,-17240,7432,-28644,-17576,-1000,-24572
46431,-13048,5068,-31064,-12572,-2068,-25361
46453,-9564,2428,-32488,-6410,-639,-25272
46475,-7168,1084,-32768,1188,3300,-24903
46491,-5900,456,-31832,9445,8500,-24423
46519,-4828,744,-28304,16208,9487,-23836
46541,-2648,1208,-24632,20769,6824,-22732
46563,-600,940,-22768,24864,6286,-20912
46585,1404,1032,-19672,29216,8434,-18714
46608,3604,348,-13848,32656,13013,-15226
46629,4428,-1660,-7492,32474,12224,-10317
46651,5920,-3812,-4172,29876,6953,-5370
46673,8124,-5676,-1988,29275,11507,-756
46694,8148,-6568,2740,29210,23318,4519
46717,6904,-7320,7924,24093,22276,10509
46729,6324,-7780,10172,17347,18824,16543
46758,5416,-7328,11636,10331,16151,22243
46782,4228,-4668,12280,2337,9933,28013
46805,1540,-1532,10548,-4871,4654,32767
46827,-4248,1944,7500,-9606,3829,32767
46849,-10060,5884,5944,-13058,1942,32767
46871,-16504,8832,6000,-15327,4610,32767
46893,-25364,11048,5960,-18588,3718,32767
46915,-31684,11520,5992,-20211,10162,28710
46936,-32768,12144,5360,-23211,14381,20742
46958,-32768,12024,2480,-27105,10747,11215
46980,-32768,12280,-3168,-29817,2880,2346
47002,-32768,12312,-8384,-29043,2413,-4566
47024,-31224,11276,-9808,-26851,6785,-10025
47047,-25552,9472,-9364,-26615,7179,-13518
47068,-21768,8880,-12344,-28340,1010,-14957
47091,-19876,8424,-19444,-28177,-3668,-15277
47113,-18872,7716,-26896,-24110,-4414,-16008
47135,-17940,5564,-30108,-16286,956,-17441
47158,-16584,3516,-30840,-8467,5420,-18974
47179,-14488,2672,-30984,-1781,5030,-20014
47200,-12272,2048,-29696,3388,1699,-20302
47220,-10952,2180,-28412,8527,101,-20475
47245,-8792,2572,-25660,14303,2068,-20552
47264,-5956,1784,-21680,19157,5120,-19596
47286,-3548,1156,-18080,22735,7526,-17666
47308,-2004,784,-14808,24669,6760,-14944
47332,316,-80,-11284,25195,4264,-11607
47355,1792,-2408,-7944,25153,4121,-7312
47375,2448,-3064,-5960,25287,7075,-2818
47398,2332,-3728,-3132,25856,13941,1421
47420,1224,-4004,-312,25599,21673,5384
47436,460,-3884,3056,22905,23320,9483
47465,528,-4032,5260,17717,19699,13809
47487,-740,-3808,7364,12256,14985,18252
47509,-3536,-3620,11216,7226,12931,21806
47531,-7392,-2832,14920,1320,15025,24671
47553,-14096,408,14012,-6450,13362,26264
47575,-21496,3332,10168,-13689,4123,25668
47596,-27016,4096,8020,-17679,793,22534
47618,-31128,4900,6192,-19327,6945,17496
47641,-32768,5648,2748,-21018,10817,10964
47663,-32768,5908,-644,-23575,6196,4179
47686,-32768,6664,-2420,-26366,696,-1569
47707,-31660,7860,-6204,-28068,-879,-6142
47730,-29320,8732,-11152,-27778,182,-10160
47751,-27356,8392,-15084,-26556,456,-13686
47774,-24412,8028,-19384,-24801,-1658,-16410
47795,-21232,6844,-23808,-21459,-1316,-18359
47813,-18304,5176,-27040,-16579,418,-19689
47837,-15936,3636,-28452,-11332,1496,-20451
47859,-14328,2512,-28956,-5711,3447,-21273
47882,-13096,1736,-29276,368,6114,-22175
47904,-11708,1484,-29368,6985,7882,-23050
47926,-8804,2236,-27072,12951,7350,-23727
47948,-4760,2452,-23284,17779,6879,-23258
47971,-972,1840,-20224,21724,7778,-21433
47992,1744,752,-17256,25019,9545,-18486
48015,4740,-724,-12680,26433,8351,-14237
48036,7624,-2860,-9196,26266,6816,-9026
48058,9000,-4236,-6396,26059,9385,-3688
48080,9180,-4804,-2312,25927,16545,2163
48102,8868,-6256,2140,22722,17527,8388
48125,8108,-6372,5044,17883,15952,14520
48141,7032,-5424,7376,13164,17616,20429
48169,1908,-4656,9808,6622,15616,25510
48190,-3444,-596,10564,-831,6988,29173
48213,-8972,1380,12884,-7503,-127,31350
48235,-14964,3660,14288,-12814,3259,31717
48258,-23904,5632,12976,-17601,10655,29215
48280,-29700,7960,8888,-22416,11756,24032
48297,-32768,8972,5276,-26150,11083,18028
48323,-32768,9052,1072,-29873,6080,11635
48341,-32768,10500,-4464,-32248,878,4885
48363,-32768,10788,-9996,-32238,1253,-2213
48386,-32768,11268,-14960,-31372,-750,-8737
48408,-30520,10448,-18992,-29472,-2397,-13373
48431,-25928,9224,-22632,-26467,-3098,-16443
48455,-21380,7056,-26824,-22294,-2628,-18421
48475,-17280,5220,-29648,-17153,-1903,-19498
48499,-13788,2932,-31820,-10890,420,-19836
48521,-11816,1260,-32768,-3790,3003,-19422
48543,-11992,228,-32084,3569,4515,-19257
48564,-12204,148,-29572,10621,6428,-19904
48587,-10976,2216,-26520,16152,6039,-20669
48608,-7612,3464,-23616,20128,3579,-20805
48624,-4028,3364,-20536,24147,4848,-19979
48652,-860,1808,-16676,27486,7997,-17662
48675,2988,556,-12448,29032,8056,-13536
48696,6244,-892,-8680,28732,6511,-7898
48718,8124,-2232,-4808,28188,8084,-1914
48735,7600,-3652,-872,27406,14980,3793
48763,6300,-3996,2748,25599,23405,9443
48785,4168,-3588,6172,20632,24593,14882
48807,1212,-3152,8840,13666,20320,19817
48830,-1904,-1700,11388,5815,14255,23533
48851,-5512,-696,12196,-1566,11715,26514
48873,-10948,2164,11472,-6965,14013,27865
48893,-17696,4364,12096,-12414,14720,27004
48914,-24268,5196,9172,-17949,13724,24158
48939,-29504,6448,4352,-21909,10242,19576
48961,-32768,6256,812,-24043,9471,13624
48983,-32768,7392,-2272,-25874,6878,6650
49005,-32768,8052,-5492,-27895,3248,-162
49027,-32768,9680,-9132,-28958,1859,-6648
49048,-31648,10424,-13792,-29275,185,-11907
49063,-27796,10752,-18332,-29300,-4975,-15664
49093,-24740,9364,-22864,-27084,-5199,-18490
49115,-21064,7748,-27244,-22636,-3176,-20642
49137,-17856,6164,-30696,-17031,-2011,-21925
49159,-16352,4488,-32768,-10921,-2780,-22990
49181,-14412,3484,-32768,-2812,633,-24450
49203,-12572,3112,-31952,5965,8083,-26055
49225,-10268,3696,-27972,13356,13766,-27288
49247,-7408,4004,-25048,17962,11714,-27216
49268,-3340,3348,-23132,20468,4413,-25888
49291,1828,1996,-20592,22738,519,-23227
49313,5576,-996,-17288,24886,513,-18849
49335,8044,-3296,-13288,26541,2111,-13264
49357,8976,-4588,-10336,27062,3304,-7549
49379,8624,-4580,-6736,27592,7437,-2148
49401,6896,-4872,-2836,26983,11665,2864
49422,5048,-4972,268,25178,15494,7380
49445,4500,-5776,3040,22939,20765,11534
49467,3036,-6236,5776,20102,28562,15891
49488,440,-5076,7452,14878,31941,19907
49510,-996,-3972,10708,8051,32430,23340
49533,-3276,-2320,14700,-891,28928,26903
49553,-9564,820,15100,-11415,19540,29758
49574,-16752,5568,12236,-20499,7342,30158
49599,-23760,8024,7620,-25220,4779,27957
49621,-29808,9944,3616,-26964,11252,22555
49643,-32768,10548,1368,-28839,18403,14307
49658,-32768,12272,-2768,-32768,6644,5461
49687,-32768,13804,-8696,-32768,-6284,-1488
49709,-32768,14616,-14200,-32768,-4884,-7070
49732,-30712,14616,-18328,-32768,-1323,-11962
49753,-28204,13504,-22676,-32674,-3473,-15647
49776,-26148,11932,-26936,-30551,-9778,-18273
49798,-22552,10464,-31216,-26519,-11095,-20470
49814,-17996,8388,-32768,-18941,-3798,-22345
49841,-14804,5508,-32768,-10525,2148,-23346
49862,-12764,2760,-32768,-3589,1194,-23458
49884,-10604,2160,-32768,4597,3651,-23752
49907,-8864,2512,-31548,14607,14057,-24238
49930,-7528,3280,-27316,21657,16002,-23907
49947,-4008,4680,-24340,24974,8286,-22618
49972,-580,3948,-21460,28423,7252,-20581
49995,2592,2688,-16352,31623,9919,-17297
50015,4872,-224,-10584,32295,9491,-12093
50031,6640,-1112,-7948,31542,8917,-6314
50060,5464,-1904,-5276,31100,12967,-962
50081,3580,-3264,-1840,30019,17727,3635
50105,3572,-5296,1876,26081,15327,8133
50124,4312,-6960,3636,22203,17020,12803
50140,3252,-6588,5144,18613,21874,17435
50168,272,-5408,7128,13786,24397,21621
50193,-1792,-3952,9808,6737,21141,25197
50215,-4176,-1200,12524,-1286,17600,28228
50237,-11156,1916,13204,-9722,14382,29790
50259,-17168,5776,11428,-17498,9450,28896
50280,-21520,8780,8096,-22531,10807,26129
50303,-28000,9712,3392,-25817,13689,21342
50324,-31756,11412,-532,-27542,14147,14716
50346,-32768,11348,-300,-30288,9727,7771
50369,-32768,11260,-3884,-32768,-5565,2288
50391,-32768,13492,-9768,-32768,-6497,-2846
50413,-31600,13336,-11004,-32768,994,-8356
50436,-30532,13048,-13560,-32768,-3316,-12615
50457,-28372,14756,-18128,-32768,-9736,-15587
50479,-26688,14424,-23988,-32768,-12470,-18218
50498,-23756,12412,-29892,-27732,-6318,-20848
50520,-20284,9368,-31696,-18741,2610,-23373
50542,-16344,6732,-30488,-11621,4463,-24873
50564,-12092,5340,-30388,-6410,1189,-24987
50586,-9352,3300,-30564,-564,661,-24270
50609,-8736,1520,-30796,6863,4227,-23612
50633,-8908,2032,-28860,15647,10443,-23588
50655,-6000,3268,-24224,21828,11274,-23457
50677,-2252,4020,-20476,25855,10518,-21886
50698,248,2476,-18064,29134,12134,-19042
50721,2880,1516,-14200,32572,16079,-14696
50742,5088,-36,-8100,32767,15440,-8640
50765,5580,-2228,-2808,30119,10977,-2376
50787,5196,-3796,52,26445,8767,3267
50808,5364,-4412,2548,23987,13246,8240
50830,3912,-5832,4980,21115,19454,13059
50852,2664,-5504,6728,15885,18653,17738
50874,1740,-4720,7048,9924,15198,22044
50896,480,-3100,7820,4650,12713,26183
50919,-2172,-832,9968,-639,10214,30274
50941,-6372,2612,11780,-7066,6066,32767
50963,-12860,6452,11280,-13000,4217,32767
50985,-21520,8996,8836,-17922,2962,32767
51005,-30780,11044,4960,-20944,2686,29936
51029,-32768,11520,2368,-22298,5706,22623
51047,-32768,11508,-760,-24202,3276,12952
51073,-32768,11420,-4036,-25283,371,3544
51095,-32768,11384,-6740,-25638,-1252,-4179
51117,-32768,10640,-9208,-25699,-2133,-9416
51138,-30960,10044,-12276,-25353,-3004,-13137
51152,-27556,9376,-16208,-23756,-1207,-16293
51183,-24148,8836,-19276,-21012,1115,-19124
51205,-21224,7016,-22564,-17071,2606,-21326
51226,-17720,5148,-25600,-11157,5400,-23245
51248,-12716,2196,-28932,-4043,7514,-23989
51271,-8688,556,-29916,3669,9260,-23768
51292,-5848,-348,-28424,11691,13080,-22643
51315,-3920,-400,-26652,17743,12858,-20519
51336,-2520,88,-24400,22710,11191,-18164
51357,-1952,160,-20832,27221,12830,-15661
51380,-1156,620,-16288,30747,15650,-12754
51403,-912,-196,-10244,31326,13695,-9033
51424,-40,-2144,-7716,28844,5615,-5142
51445,2004,-2052,-6228,27870,4339,-1795
51468,2660,-3524,-2944,28855,14198,1528
51491,2528,-3732,1084,29318,28200,5456
51513,2108,-4572,8136,24779,29886,10576
51535,2828,-5260,13712,16117,23087,16370
51558,2496,-4412,16116,7452,21918,21973
51580,-2140,-1544,17232,-1437,22650,26358
51601,-7604,2796,17116,-11451,17327,28800
51623,-12104,7712,14800,-20236,13421,29803
51644,-20700,9768,9164,-26642,10812,28909
51665,-29356,11696,2672,-29758,6018,25028
51687,-32768,12092,-376,-29397,10100,18498
51710,-32768,12896,-2660,-31083,5730,9645
51732,-32768,12972,-6324,-32768,-1601,290
51755,-32768,14212,-11620,-32768,-4034,-8094
51776,-32768,15540,-19204,-32768,-5880,-14085
51799,-29656,14392,-25940,-30538,-3510,-18284
51822,-24656,12292,-30064,-25333,-1801,-21468
51844,-20004,9832,-32368,-19428,683,-23870
51865,-15648,7944,-32768,-13207,1371,-25366
51887,-11144,4856,-32768,-7343,-169,-25390
51909,-7728,2268,-32260,-640,1742,-24649
51930,-5712,880,-30188,6472,5064,-23507
51953,-3740,188,-28044,12848,7209,-22071
51969,-1884,176,-25352,18481,7994,-19889
51997,-680,-188,-22200,22674,7715,-17287
52017,148,-320,-18496,25537,6886,-14509
52041,796,-564,-15728,26920,5828,-11611
52063,1252,-792,-12688,28613,8310,-8441
52085,1584,-1044,-9384,29970,12420,-5349
52107,1268,-1432,-5488,30439,17168,-1868
52130,2092,-2512,-1728,28795,18476,1990
52150,4148,-3696,1940,25575,18762,6539
52170,6312,-4732,4864,22361,25430,12004
52193,4204,-4956,8356,17612,32719,18387
52217,308,-3932,11548,8565,26514,23793
52237,-2328,-1996,13268,-1767,14306,27964
52258,-6140,348,12392,-10326,7129,31072
52281,-12004,5568,9740,-16354,3487,32767
52303,-20552,9084,7992,-20728,-375,32767
52326,-29588,10380,5808,-22291,4687,30186
52348,-32768,11284,5128,-25198,4169,23127
52370,-32768,12080,3156,-28745,-1211,14027
52393,-32768,12772,60,-30967,-1671,3875
52415,-32768,14160,-2788,-32219,158,-4949
52437,-32768,13896,-7000,-32768,-412,-10695
52458,-26640,13968,-12400,-32768,239,-13584
52481,-23172,12400,-17012,-32064,911,-15118
52504,-22000,11052,-21492,-30043,-1381,-16626
52525,-20096,10084,-25892,-25947,23,-18616
52547,-17648,8792,-28864,-19356,5967,-20951
52569,-13520,5996,-31696,-12333,9271,-22503
52591,-8828,3472,-32768,-5342,8887,-22293
52613,-5624,1156,-32768,1251,6133,-20154
52633,-4276,-36,-30920,8068,6056,-17683
52658,-4012,-404,-27392,14382,8356,-15358
52679,-3948,-116,-24676,18573,6464,-13193
52699,-3480,716,-22516,21389,2347,-11369
52720,-3160,1148,-20080,23856,214,-9748
52742,-2440,1496,-17760,26735,1950,-8232
52765,-2164,2432,-14356,30007,8095,-6359
52786,-3156,1952,-9688,31760,12608,-4276
52811,-2372,1232,-5012,30074,10201,-1980
52831,-708,-844,-1360,27382,10389,919
52855,1400,-2964,1048,24804,15642,4717
52877,2004,-3264,3148,21902,23077,9430
52898,-144,-2860,5948,16507,22915,14464
52921,-2548,-3548,8280,9524,16054,18544
52942,-2508,-2700,9196,3622,13918,21803
52965,-6296,-500,9480,-1444,17919,24502
52987,-11108,1200,10736,-7831,12894,25903
53009,-15736,2648,11840,-13608,6042,27036
53031,-22640,5636,11784,-17740,5827,26913
53053,-31808,8156,11128,-20783,13290,23435
53074,-32768,9588,9032,-26675,10934,15721
53096,-32768,11456,3956,-32768,3016,5599
53119,-32768,14064,-3584,-32768,963,-4160
53141,-32768,16208,-13184,-32768,1781,-11703
53158,-28804,16408,-25096,-32768,2605,-15607
53186,-25220,14052,-32768,-29305,-1448,-17824
53207,-22952,9672,-32768,-21975,-1426,-20154
53229,-19336,7340,-32768,-13465,4294,-22983
53247,-14644,5916,-32768,-5010,10258,-24859
53273,-10364,4156,-32768,1466,9222,-24942
53292,-7864,2172,-31848,5968,3611,-23759
53312,-5284,2404,-31592,11221,1981,-22397
53339,-4132,2640,-29896,18075,5316,-21010
53359,-3688,3204,-26004,24421,8248,-19935
53383,-3568,4504,-21840,29381,11443,-19182
53405,-2408,5240,-17328,32767,13946,-17795
53427,-56,5280,-12316,32767,14389,-15840
53449,2236,3880,-6916,32767,16906,-12554
53469,3780,304,-1168,32054,17680,-7916
53493,7196,-3364,2800,28158,19664,-2359
53513,8124,-5580,5192,24943,29434,4071
53530,4756,-6060,7464,20002,32767,9658
53558,1756,-6396,9444,12846,32767,14066
53581,-244,-6744,11556,3387,23290,17884
53602,-1332,-5508,11980,-5426,13797,21783
53625,-3492,-3052,11792,-12635,11297,25301
53647,-8404,320,11460,-18565,14938,27218
53668,-15056,3196,7864,-25235,15229,26809
53690,-21184,7040,1056,-31637,5060,24425
53713,-27136,8044,-5444,-32531,4647,20628
53735,-32768,6880,-9020,-30600,10516,14117
53757,-32768,6656,-12036,-29910,9376,5198
53779,-32768,7536,-15420,-30842,-450,-4483
53801,-32768,8188,-17896,-31263,-8035,-13026
53822,-28400,9904,-20580,-30608,-9747,-18833
53845,-20008,10500,-23356,-28080,-5327,-21372
53867,-16032,9136,-26604,-25797,-5747,-21583
53889,-14244,7648,-30236,-23497,-9197,-21631
53912,-10204,6008,-32768,-19377,-9357,-21655
53933,-6564,3576,-32768,-12468,-4690,-20657
53956,-5108,868,-32768,-4648,-1120,-19008
53977,-4696,-128,-32768,3292,1221,-17352
53998,-3840,-92,-32496,9447,596,-15889
54013,-2000,628,-30192,14551,682,-14185
54043,-980,1212,-28464,20219,4324,-12058
54063,-772,2008,-24228,25262,7221,-9763
54087,-480,2108,-19224,27331,5355,-7279
54109,1276,2644,-15452,28213,2998,-4613
54130,2256,2364,-10572,28986,6529,-1597
54153,1120,836,-5436,28749,13214,1730
54175,68,396,-1220,26826,18505,5278
54197,-772,-284,4956,22181,19297,9060
54219,-2632,-1920,10904,14459,16374,12883
54241,-5716,-2640,15092,4900,12958,16003
54263,-9612,-2724,15592,-4516,10468,17726
54284,-11492,300,12764,-12017,10196,18463
54307,-16764,1932,9612,-18436,7414,18588
54325,-22748,2760,4848,-23129,784,16825
54346,-29688,1372,1292,-24612,-10,12823
54373,-32768,2552,-2124,-25002,770,6698
54394,-32768,3692,-4700,-25470,2741,-640
54415,-32768,5028,-8384,-27514,-203,-7960
54430,-28804,6124,-15336,-29262,-5033,-13462
54461,-23104,7588,-25092,-28385,-7901,-16665
54483,-18368,7028,-32296,-23146,-4435,-18421
54505,-16416,3724,-32768,-17067,-3129,-19311
54527,-14240,1484,-32768,-11050,-3413,-19722
54547,-11692,428,-32768,-4802,-1476,-19859
54563,-9564,-232,-32768,1101,-1059,-19254
54593,-8296,-608,-32768,7029,-1497,-18366
54615,-6404,0,-30480,12536,-792,-17518
54637,-4680,852,-28212,17844,418,-16628
54659,-2808,1780,-24624,22548,1772,-15734
54681,-768,2460,-20068,26288,4742,-14521
54697,1072,1784,-16100,28995,7943,-12356
54725,4248,1740,-11912,30236,9394,-9268
54746,5992,368,-5928,29888,11939,-4919
54768,6964,-940,-304,27477,14810,106
54791,7340,-3364,5464,22911,17088,5877
54813,7208,-4620,10364,16117,16124,11757
54830,6548,-5308,12672,8339,14133,17850
54857,4544,-4024,13372,1235,14410,23627
54879,-828,-824,13272,-5551,13836,28264
54901,-6628,3044,12408,-12160,11655,30892
54923,-14416,5988,11516,-18064,10593,31306
54945,-26220,7236,8488,-22961,9300,28715
54967,-32768,9356,3968,-26404,9172,22502
54989,-32768,10960,-2252,-28870,7922,12983
55011,-32768,11912,-7624,-29937,6791,1610
55033,-32768,12284,-12500,-29986,6514,-8552
55055,-32768,13308,-18072,-30037,1753,-15644
55077,-25200,12412,-23832,-28444,-639,-19418
55097,-20432,10660,-28664,-24872,-198,-21517
55116,-17156,9008,-32532,-19926,893,-23365
55143,-13872,7512,-32768,-14527,906,-24606
55164,-10528,5144,-32768,-9114,-454,-25072
55187,-7244,3396,-32768,-3104,-999,-24798
55209,-4764,1752,-32768,4449,2160,-23735
55231,-2536,908,-32720,11636,4953,-22377
55252,-668,1012,-30148,17811,7161,-20499
55275,804,1460,-27008,22811,7581,-18324
55296,2252,1188,-23516,26160,5649,-15713
55318,3596,700,-19660,28099,2735,-12800
55340,5572,1240,-15144,29498,2210,-9432
55363,7112,-100,-10664,30062,5219,-5550
55385,8100,-1488,-5544,30445,12868,-1054
55406,7104,-3696,-276,29091,20679,4174
55425,6552,-5464,4648,24789,21483,9771
55451,6824,-6200,9440,18379,19906,15627
55473,4848,-4860,12056,11068,21275,21629
55495,-252,-2372,14148,2541,20857,26537
55517,-6292,448,15884,-7835,11823,29754
55536,-11608,5008,14652,-16644,5876,30896
55560,-18136,8264,11304,-22306,8277,29479
55583,-27576,8640,5808,-26101,10638,25404
55605,-32768,9176,-232,-28772,5849,18545
55625,-32768,9852,-3552,-28716,7139,10520
55647,-32768,8412,-7092,-29199,7619,1908
55670,-32768,8540,-12536,-29637,5387,-5861
55693,-32768,8700,-18508,-30596,-2042,-11452
55714,-28240,10132,-25776,-29347,-6580,-15475
55737,-24388,9108,-30696,-24750,-3681,-19320
55758,-19696,6992,-32768,-18579,40,-22440
55780,-13728,5888,-32768,-11821,1779,-23923
55802,-7368,3580,-32768,-4924,2691,-23340
55825,-2436,1212,-32768,1256,1880,-21286
55847,464,-724,-32768,7273,2768,-18447
55868,1948,-1540,-31624,13623,6558,-15279
55891,2396,-1500,-29616,19226,7873,-12006
55912,2372,-204,-25992,23227,5406,-9203
55934,3112,804,-21812,25629,3247,-6697
55957,3728,1300,-17916,27480,4555,-3856
55978,4060,1304,-14104,28909,8261,-572
56000,3676,1040,-10388,29931,14845,2732
56021,2476,636,-6904,30313,23839,6033
56043,2064,20,-1472,27432,25662,9890
56066,3164,-1664,3512,21067,19832,14356
56088,3500,-2324,5828,15172,21606,19175
56111,376,-888,6892,9568,27633,23648
56130,-4844,184,10732,380,19138,27419
56153,-8884,2380,11252,-9863,3339,30377
56176,-14940,5716,9184,-15483,-785,31026
56197,-24112,7188,8064,-17571,6646,28025
56221,-32768,7628,7032,-21126,10523,21170
56242,-32768,10228,3808,-26172,6136,11984
56264,-32768,12296,-980,-30885,-691,3081
56287,-32768,14464,-7496,-32768,-4897,-4042
56308,-32768,16196,-14492,-32768,-6337,-9670
56330,-32768,16532,-20204,-32768,-7674,-14408
56353,-31488,16392,-27356,-32768,-8206,-18535
56375,-28156,15092,-32768,-28962,-6412,-22751
56396,-23068,13420,-32768,-21415,-2111,-26617
56418,-16872,10712,-32768,-12319,3185,-29481
56440,-10916,7600,-32768,-3514,6033,-30582
56462,-5288,5064,-32768,3996,6190,-29751
56485,-964,3792,-32036,10572,6540,-27626
56507,1696,2144,-28340,16274,7626,-25052
56528,3580,1652,-25824,21543,8806,-21957
56550,5000,1296,-22052,26112,10227,-18859
56572,8272,988,-16216,28947,11160,-15278
56592,10608,44,-10696,30631,15916,-10497
56617,11836,-1196,-5672,31115,22656,-4657
56638,11216,-3620,-880,27973,21970,2237
56657,11136,-4144,836,23034,17419,8904
56683,10416,-4528,1872,18430,14805,14931
56704,7476,-4952,2360,15507,17308,20430
56727,3572,-2744,3976,11705,16970,24533
56748,1404,-1872,7868,6102,11408,28510
56771,-1064,200,10916,-872,5785,32550
56785,-8732,3828,13032,-7782,4441,32767
56815,-18092,7336,14892,-15333,2155,32767
56837,-27504,10516,14384,-23244,-723,32352
56859,-32768,13892,9500,-29815,-5546,27120
56881,-32768,14596,3520,-32768,-6116,19084
56903,-32768,15344,-1604,-32768,-1977,10155
56925,-32768,16056,-6636,-32768,-728,2240
56947,-32768,16412,-11796,-32768,1724,-4209
56969,-32768,16280,-15636,-31835,5245,-10054
56992,-30268,15516,-20004,-30280,4428,-15037
57013,-25016,14716,-24724,-27297,4611,-18968
57035,-19688,12644,-27996,-22684,6915,-21737
57057,-14376,9272,-31732,-17042,8044,-23210
57077,-9080,5748,-32768,-10360,6582,-22595
57098,-6228,2544,-32768,-3358,4055,-20734
57121,-5404,1040,-32768,3837,4593,-18809
57141,-5004,872,-30988,11264,8606,-17543
57164,-4400,1212,-27536,17529,11703,-16470
57187,-3608,1916,-25648,22571,12648,-15096
57210,-2684,3448,-22640,27771,14853,-13429
57231,-1248,3776,-17104,30307,13107,-11265
57254,1876,3416,-12132,30915,10962,-8094
57277,4304,1384,-8584,31147,13971,-3839
57297,4536,-584,-5228,31338,21209,797
57320,3656,-1984,-1568,30023,27352,5500
57342,3400,-2768,1748,25796,24858,10280
57365,4300,-3556,4912,18931,13812,15258
57386,6012,-3324,5548,13525,9012,20222
57409,5300,-3600,6488,10602,14516,24779
57431,1732,-1244,9472,6581,17984,28908
57452,-5980,736,13252,-1101,12841,31771
57474,-14520,3856,13268,-10653,2912,32767
57497,-21460,6568,11568,-18349,-2498,31896
57518,-29624,10128,7220,-22873,2046,28683
57541,-32768,13068,1816,-26345,5814,22674
57563,-32768,14720,-2680,-29960,690,14152
57585,-32768,14340,-6344,-31782,-945,4775
57608,-32768,15052,-11364,-31885,782,-3951
57630,-32768,16144,-16120,-31413,-1406,-10910
57651,-31068,14680,-19836,-29857,-3174,-15581
57669,-25904,13064,-23544,-26924,-3079,-18738
57695,-21284,11048,-26500,-22549,95,-21109
57715,-17344,8960,-29192,-17365,2881,-22923
57739,-13328,6484,-32404,-11352,4386,-23917
57760,-8812,4108,-32768,-4218,6257,-23975
57782,-5008,1932,-32556,3079,8094,-22994
57805,-1684,492,-30612,10223,11630,-21010
57825,280,-312,-27392,15905,12313,-18213
57848,1284,-824,-24360,19089,7604,-14978
57871,2808,-772,-22296,21696,4154,-11726
57893,4524,-656,-19376,24759,5696,-8299
57915,5016,-356,-15204,27868,12415,-4234
57937,3632,68,-10700,28860,15910,121
57958,3228,-464,-6908,27228,13943,4231
57979,4456,-1244,-4432,25382,14675,8107
58003,4240,-1532,-1348,23822,19851,12492
58025,2132,-1300,3112,20093,20119,16723
58047,352,-1692,7752,13133,12708,20571
58068,-1136,-1396,10252,6415,9618,23806
58090,-4652,752,11468,795,13160,26426
58113,-11620,3660,12128,-5620,13366,27773
58136,-18880,5716,12780,-13932,3857,27236
58152,-25824,6968,10424,-19885,41,24695
58179,-32768,9212,7136,-23528,1344,19787
58201,-32768,11016,4476,-26705,1701,12755
58222,-32768,11672,592,-30566,-2549,5352
58245,-32768,13400,-5304,-32768,-4445,-1371
58267,-32768,14468,-11260,-32768,-5013,-6763
58285,-32572,14648,-17668,-32768,-7381,-10588
58311,-29204,14604,-23940,-31081,-5962,-13746
58330,-26060,13116,-29564,-25933,-662,-16879
58354,-22736,10828,-32768,-19661,2001,-19759
58376,-18124,8428,-32768,-12288,4372,-21807
58398,-13496,5972,-32768,-4689,6197,-23028
58420,-9076,4172,-32768,2703,7941,-22880
58442,-5716,2708,-32132,9737,9788,-21632
58463,-2860,1668,-29240,15573,9346,-19479
58486,-572,1168,-26184,19754,6339,-16580
58508,1196,1212,-23072,23123,4662,-13329
58530,2356,1124,-19172,26160,6536,-9996
58553,2712,988,-14788,28237,9839,-6338
58575,2984,564,-10516,28349,10410,-2290
58596,3408,-196,-6508,27028,9688,1788
58619,4064,-1200,-3656,26006,14073,5992
58641,3376,-1492,-372,24455,20765,10480
58663,892,-2316,3884,20091,19812,14756
58685,92,-2432,6504,13656,13498,18690
58708,-2728,-1116,8524,7700,10829,21701
58727,-7424,812,10908,1921,10227,23527
58741,-14380,2612,11900,-4283,7093,24175
58773,-21012,4596,11628,-10513,-169,23018
58795,-27076,5756,11352,-14860,-2085,19694
58816,-32340,5316,10704,-18619,-1044,14617
58836,-32768,5176,7724,-22233,-1001,8739
58861,-32768,5864,2472,-24973,-1576,3360
58883,-32768,6100,-3464,-26514,-1579,-1423
58905,-32624,6696,-9080,-26791,-1918,-5678
58924,-30296,7404,-14428,-25879,-2090,-9299
58949,-27856,7764,-19068,-23846,-300,-12830
58971,-24708,7300,-24308,-20933,2093,-16172
58993,-20416,6332,-29428,-16854,3435,-18873
59015,-14772,3932,-32768,-11639,2818,-20290
59036,-8424,1448,-32768,-4982,3377,-19937
59059,-2568,-824,-32768,2643,5899,-17899
59080,2252,-2120,-32768,10069,7687,-14522
59102,7048,-2740,-31000,16680,9472,-9959
59125,9752,-2084,-25424,21731,10122,-4427
59146,10224,-712,-19660,24773,10139,1396
59168,9052,884,-14620,26440,11637,6833
59190,6168,1844,-9604,26575,13899,11736
59212,2120,2020,-4804,24061,11716,15841
59235,-2172,2600,-164,20270,9148,19015
59257,-6748,3720,4112,14807,5034,21283
59278,-11900,4892,8752,8163,-538,22474
59296,-18072,5568,13396,2159,1181,21890
59323,-24920,4964,17116,-4326,6262,19129
59342,-29244,5888,18204,-12585,3621,15151
59365,-31224,6476,15752,-20054,360,11271
59387,-32768,6900,11532,-25182,514,7030
59408,-32768,8108,7128,-28098,3789,1839
59432,-32768,8892,24,-30849,4403,-3880
59453,-32768,11264,-9744,-32763,979,-9408
59477,-32080,12652,-19792,-31347,2073,-14444
59499,-29480,13568,-30452,-26408,5197,-19472
59521,-25148,11116,-32768,-18463,6602,-23521
59542,-19788,7904,-32768,-10649,3030,-26136
59564,-14600,6244,-32768,-2370,2108,-27555
59586,-9868,4628,-32768,5753,1222,-28159
59608,-4724,3632,-32768,14264,4259,-27405
59630,-1788,4044,-32768,22730,8782,-25935
59646,492,4708,-26720,28743,8487,-23891
59675,3572,4840,-19444,32125,7369,-21481
59696,8432,3984,-13008,32767,8709,-17291
59719,12196,1764,-6492,32767,12815,-10652
59741,12504,-932,-512,31571,13351,-3337
59763,11568,-2384,3972,28371,16743,4207
59785,9820,-4160,7144,23738,18608,10572
59807,10136,-3664,9768,18090,19050,16584
59828,9512,-3456,11552,12028,20604,22583
59851,6376,-1072,10800,5985,22557,28057
59872,2296,3432,10508,-1002,16269,32759
59895,-2712,6400,12008,-7754,10235,32767
59917,-12612,8648,14012,-14171,8297,32767
59937,-25172,12768,12656,-21071,4649,32767
59960,-32768,16904,9020,-26224,3870,32246
59981,-32768,17828,6280,-30692,2678,22705
60005,-32768,19184,1448,-32768,5683,11375
60027,-32768,20992,-4856,-32768,7070,160
60049,-32768,21716,-10604,-32768,5589,-9032
60070,-32768,21396,-17064,-32768,6995,-15275
60085,-27984,20240,-24424,-32768,4939,-19390
60114,-23256,17636,-31540,-29082,2401,-22013
60137,-19616,13768,-32768,-22496,2293,-24269
60159,-15260,10056,-32768,-13214,5549,-26507
60174,-10284,7320,-32768,-3575,9098,-27656
60202,-5392,5432,-32768,4905,8995,-26982
60224,-2060,3924,-32768,12275,8934,-25177
60247,-76,3056,-31060,19168,11129,-22788
60263,540,3144,-27760,24586,9812,-19976
60291,760,3724,-23412,28604,7390,-17480
60312,2036,3852,-18372,31786,7745,-15098
60335,3884,3152,-13140,32767,11055,-12314
60355,6084,1908,-8340,32767,19310,-7649
60379,6628,44,-2352,32767,22163,-1949
60396,8072,-2612,1940,30067,22521,4270
60423,8960,-4216,6288,25288,24586,10802
60441,8208,-4544,9656,19183,26584,17329
60457,5424,-3984,11284,11700,25716,22813
60488,2900,-1236,12916,3608,21207,27272
60507,-1980,1048,14584,-5836,13466,31065
60532,-7340,5952,14196,-14600,6153,32767
60555,-14708,8708,13164,-20730,7319,32767
60569,-25884,11240,9272,-26706,7835,31219
60599,-32768,14656,3412,-31884,529,25477
60621,-32768,15100,-1912,-32768,-3492,17505
60636,-32768,16012,-7704,-32768,-2068,8120
60664,-32768,16180,-12568,-31398,2519,-1592
60687,-32768,16136,-16444,-29646,2619,-10378
60709,-32768,15436,-19856,-29481,-3816,-16328
60731,-27528,14636,-23584,-27831,-4860,-19831
60753,-22588,12888,-27752,-23979,-1729,-22231
60775,-18272,11160,-30992,-19120,-282,-24080
60796,-14096,8648,-32768,-13525,1160,-25047
60818,-9344,5820,-32768,-6713,3015,-25245
60840,-4684,3464,-32768,1128,5469,-24292
60863,-2008,1344,-31584,8543,8578,-22295
60885,-24,328,-28060,14090,8502,-19722
60908,2340,-532,-25448,18401,7900,-16573
60929,3872,-804,-23080,22175,7733,-12918
60951,4604,-680,-19912,24751,5777,-9049
60970,5816,-176,-15960,26515,4982,-5012
60993,6624,-388,-11316,27854,8346,-577
61015,5620,-852,-7452,28579,15021,3984
61038,4224,-1376,-3564,27613,19587,8280
61060,3092,-1492,760,24450,21523,12438
61082,1428,-1748,5272,19255,20584,16381
61104,388,-2060,8392,12202,15655,20111
61126,-912,-928,10288,5734,16485,23426
61147,-4656,1188,12676,-2266,14952,26116
61171,-9016,3496,14784,-11362,10360,27770
61193,-14736,6600,14132,-20125,5776,28370
61215,-23320,11632,11012,-27103,4719,26868
61237,-32768,14808,6512,-32768,-2807,22722
61259,-32768,17060,-36,-32768,-668,16117
61274,-32768,17964,-6580,-32768,2691,6561
61303,-32768,19556,-13792,-32527,998,-4416
61324,-32768,18272,-17372,-30441,-38,-14046
61347,-32768,17860,-21400,-28269,110,-20493
61369,-26116,16868,-26940,-24862,1085,-23959
61391,-20816,14376,-31100,-20352,1862,-25867
61413,-15784,11972,-32768,-14427,4356,-27224
61434,-11264,8660,-32768,-7777,5003,-27586
61457,-7280,6128,-32768,-251,2159,-26933
61479,-3180,3960,-32768,8589,2614,-25666
61500,-400,3808,-32768,18096,9683,-23869
61522,1216,4484,-29972,25828,14209,-21550
61535,3008,5312,-24316,30898,13717,-18630
61566,5548,4692,-17268,32533,9645,-15032
61589,8112,2736,-10768,32314,7828,-10456
61602,9748,612,-5752,31713,11349,-4998
61632,9744,-848,-740,30665,18682,1411
61654,8700,-3036,4208,26037,19209,8158
61675,7192,-3832,6860,19939,17823,14363
61698,5196,-3456,8852,13794,18070,19755
61721,3168,-3720,11444,6596,15506,24662
61743,1648,-1632,12716,-772,13728,29471
61765,-3440,2724,11548,-8365,11267,32767
61787,-12328,7608,8696,-15704,1753,32767
61809,-22240,11040,5904,-19656,-5602,32767
61830,-32768,11552,4200,-20013,2876,31277
61853,-32768,11948,2360,-21764,9041,21337
61869,-32768,13452,-3144,-24932,2734,8719
61896,-32768,14156,-7244,-25192,3807,-3018
61919,-32768,14524,-10348,-25189,3731,-11598
61940,-32136,13940,-13736,-25195,154,-16489
61963,-26508,12552,-16012,-25312,-4290,-18999
61985,-21992,11364,-18696,-25309,-7038,-20619
62007,-18932,10784,-22528,-22719,-2293,-22070
62029,-17228,8900,-27460,-18230,2414,-23622
62049,-14276,7276,-32768,-12030,4115,-24903
62069,-10784,4608,-32768,-3949,5442,-25370
62092,-7944,2320,-32768,5034,5891,-25384
62107,-4148,2172,-32768,14706,10095,-24984
62139,220,1988,-29748,21847,12794,-23192
62159,3160,952,-23756,25195,10755,-19749
62182,5136,360,-20508,26942,7669,-15704
62205,6788,-176,-16708,29323,9664,-11263
62227,7748,-872,-11168,30673,13155,-6060
62247,7424,-1848,-6616,29914,14528,-269
62271,6584,-2292,-2824,28763,18586,4820
62292,5980,-2620,2024,26155,22399,9552
62314,5492,-3992,7236,20798,23780,14597
62330,3580,-4768,10272,12736,21309,19723
62358,1160,-4072,10152,4061,17952,23581
62381,-740,-1628,11128,-3508,17678,26888
62402,-5056,1600,13140,-12547,14082,29817
62425,-11304,7228,11420,-22288,3957,32579
62446,-20220,11716,9004,-28912,-4513,32767
62469,-31612,14820,6740,-31892,-3919,31149
62491,-32768,16844,1012,-32553,1608,23417
62513,-32768,16264,-3136,-32768,-2196,10668
62535,-32768,15008,-9024,-30994,1536,-2689
62556,-32768,15816,-13812,-28026,3653,-12948
62578,-30944,14432,-17552,-25938,2703,-18436
62591,-24232,12684,-21232,-24722,-1018,-20870
62623,-19252,9900,-26448,-22419,-3323,-21929
62641,-15056,7832,-32340,-17160,-1728,-22472
62666,-12360,5500,-32768,-9362,1362,-22805
62688,-8708,3268,-32768,-789,4463,-22853
62710,-4372,1852,-32768,7085,7504,-21859
62732,-820,668,-31844,13908,9726,-19501
62754,1004,232,-27980,18873,8570,-16469
62777,2412,-140,-25476,21466,3493,-13043
62798,3388,540,-23520,24124,-510,-9804
62813,3504,948,-19420,27751,2655,-6793
62843,2500,1244,-14516,30696,9130,-3916
62865,1920,1144,-8716,30894,11813,-707
62886,1960,-616,-3716,29166,12789,2720
62909,2432,-2180,-404,26798,16290,6449
62930,2356,-2908,1468,24639,24926,10453
62952,-740,-3132,4464,20061,27642,14707
62974,-3984,-3396,7692,12055,18829,18191
62997,-5348,-2484,10428,3496,10378,20895
63018,-7832,-32,12564,-3488,10173,23191
63040,-13532,2448,14616,-11094,9063,24742
63062,-19340,6152,13788,-19211,3792,24873
63086,-27024,9140,10448,-25537,923,22989
63107,-32768,11428,6068,-30333,-4974,18128
63129,-32768,12212,1540,-32152,-5713,11504
63151,-32768,13000,-3160,-31578,-471,3834
63163,-32768,13956,-7284,-30834,3154,-3722
63194,-32768,13812,-12588,-30878,205,-9866
63217,-31404,12836,-18524,-29908,-3035,-14181
63238,-27072,12560,-23760,-26982,-3376,-17472
63260,-24220,10936,-27828,-21864,591,-20210
