timestamp,ax,ay,az,gx,gy,gz
100,-4660,980,15692,176,1340,116
124,-4568,980,15680,184,1352,132
146,-4652,976,15852,184,1299,97
167,-4636,1020,15660,193,1361,132
188,-4620,972,15612,171,1332,141
212,-4612,1032,15744,203,1361,104
233,-4584,992,15720,186,1336,145
256,-4612,964,15580,190,1348,149
277,-4676,1004,15684,193,1337,138
300,-4588,1032,15564,166,1310,125
321,-4592,996,15724,171,1322,101
344,-4676,1032,15736,189,1363,105
366,-4564,940,15628,169,1354,132
388,-4624,1036,15708,215,1316,111
410,-4664,1056,15688,213,1340,151
431,-4652,964,15696,189,1298,120
454,-4592,956,15744,189,1318,110
475,-4636,1028,15732,182,1315,104
491,-4688,988,15616,162,1363,134
520,-4712,976,15700,145,1284,117
541,-4632,960,15736,141,1289,110
564,-4552,1020,15696,194,1377,146
585,-4656,996,15808,196,1381,91
607,-4652,976,15672,158,1301,132
630,-4656,1008,15716,182,1329,144
652,-4584,964,15656,187,1292,121
674,-4548,1044,15612,166,1325,161
696,-4652,972,15704,180,1311,96
719,-4640,1040,15764,176,1327,151
737,-4608,956,15696,176,1318,127
762,-4680,1004,15708,212,1329,125
784,-4604,1004,15692,176,1381,118
804,-4632,968,15628,197,1331,128
826,-4600,1072,15788,191,1337,112
850,-4668,1024,15668,172,1304,135
871,-4596,996,15608,206,1300,118
886,-4612,1052,15704,207,1311,122
916,-4620,1032,15680,209,1352,124
938,-4648,1004,15692,174,1305,106
960,-4692,984,15676,184,1352,131
981,-4680,972,15712,199,1359,113
1004,-4620,1032,15664,198,1363,146
1025,-4684,984,15728,172,1334,141
1047,-4584,992,15644,154,1337,93
1069,-4632,1004,15744,211,1361,161
1092,-4616,1016,15584,207,1344,118
1114,-4696,964,15640,180,1317,125
1136,-4628,1032,15744,228,1337,135
1157,-4624,972,15700,226,1358,133
1179,-4644,996,15596,192,1328,125
1202,-4692,1032,15752,199,1347,154
1224,-4636,1028,15692,162,1351,138
1246,-4696,988,15648,186,1334,129
1269,-4600,1004,15648,188,1321,138
1286,-4600,984,15664,202,1283,145
1310,-4676,1012,15720,197,1314,125
1331,-4580,1012,15704,219,1318,142
1355,-4672,1008,15644,185,1344,123
1376,-4608,984,15692,194,1334,138
1398,-4640,1012,15668,169,1349,116
1419,-4600,948,15780,156,1337,140
1442,-4636,1020,15688,169,1340,135
1465,-4576,968,15692,160,1350,104
1487,-4680,1000,15736,202,1347,125
1508,-4664,1024,15752,190,1342,131
1532,-4616,1000,15600,160,1324,155
1554,-4640,972,15780,183,1335,126
1576,-4712,988,15800,152,1318,148
1598,-4696,1008,15680,208,1344,118
1620,-4540,1036,15552,186,1292,142
1642,-4652,1012,15760,158,1346,126
1658,-4628,948,15776,164,1320,127
1686,-4644,1012,15688,219,1335,135
1708,-4604,956,15648,237,1343,135
1730,-4700,1048,15604,207,1342,131
1751,-4628,1044,15696,176,1296,117
1775,-4720,1012,15596,176,1352,109
1796,-4624,1036,15784,185,1343,135
1818,-4616,1028,15724,219,1355,86
1840,-4620,960,15724,219,1319,133
1859,-4652,972,15708,220,1374,117
1880,-4588,1004,15712,177,1352,123
1897,-4624,952,15604,182,1348,152
1928,-4680,1028,15708,218,1354,131
1948,-4656,936,15664,198,1338,103
1963,-4652,980,15576,193,1314,135
1994,-4564,988,15692,231,1327,144
2015,-4560,1072,15664,184,1360,137
2038,-4632,1024,15784,185,1369,130
2060,-4652,1000,15708,197,1305,134
2080,-4644,988,15632,160,1335,133
2104,-4656,956,15760,187,1354,117
2126,-4672,1064,15652,182,1344,131
2148,-4592,1000,15796,185,1329,118
2169,-4644,996,15612,176,1346,137
2192,-4720,992,15708,171,1352,112
2213,-4728,948,15740,169,1294,136
2235,-4620,1040,15796,184,1295,125
2258,-4600,1016,15668,205,1377,137
2276,-4620,976,15644,214,1307,132
2301,-4644,1008,15720,204,1296,101
2323,-4608,1000,15688,175,1365,124
2346,-4636,1004,15800,193,1355,145
2363,-4628,1012,15788,185,1311,143
2386,-4628,1040,15688,168,1338,117
2404,-4616,1040,15680,182,1344,132
2434,-4608,984,15648,198,1353,130
2456,-4652,976,15752,196,1330,122
2477,-4644,1044,15776,174,1323,143
2498,-4640,984,15640,220,1319,113
2520,-4656,1000,15584,209,1332,109
2543,-4596,968,15676,221,1349,134
2564,-4672,1028,15724,185,1366,112
2588,-4648,996,15624,210,1291,128
2608,-4620,972,15824,207,1320,165
2631,-4660,1040,15732,223,1388,112
2654,-4632,976,15688,167,1318,121
2675,-4656,980,15712,201,1347,126
2697,-4632,968,15672,201,1311,106
2714,-4676,1032,15680,172,1345,126
2742,-4572,1012,15580,185,1351,96
2764,-4592,968,15672,167,1337,147
2786,-4676,1000,15740,197,1329,148
2808,-4628,940,15716,200,1327,116
2830,-4632,944,15636,191,1363,144
2852,-4604,976,15760,227,1323,127
2874,-4640,960,15564,180,1342,138
2896,-4588,1060,15700,183,1300,133
2916,-4672,984,15684,202,1314,100
2936,-4580,964,15736,199,1366,123
2960,-4688,1028,15732,173,1355,134
2981,-4636,1008,15732,203,1298,140
2997,-4640,992,15720,195,1324,110
3028,-4616,988,15800,197,1339,140
3049,-4564,968,15736,192,1343,148
3072,-4676,972,15720,142,1288,135
3094,-4688,988,15732,165,1354,145
3115,-4640,960,15664,192,1358,120
3138,-4684,908,15728,167,1326,110
3160,-4700,972,15756,196,1343,138
3182,-4608,980,15640,192,1388,157
3203,-4644,928,15584,209,1325,102
3226,-4604,992,15668,178,1318,118
3248,-4584,976,15756,223,1339,125
3270,-4672,1020,15696,186,1324,133
3292,-4620,1080,15684,230,1321,117
3314,-4628,980,15736,202,1377,97
3336,-4620,1000,15708,201,1367,128
3358,-4628,1048,15680,196,1316,145
3379,-4660,944,15712,156,1345,108
3402,-4660,988,15652,174,1334,140
3423,-4636,1064,15504,179,1382,117
3447,-4648,1024,15588,143,1316,125
3468,-4656,1004,15768,183,1341,111
3487,-4580,996,15704,166,1364,137
3509,-4620,988,15728,184,1360,83
3531,-4672,980,15752,192,1330,111
3555,-4620,976,15700,171,1313,134
3578,-4660,1012,15796,223,1331,130
3596,-4660,1072,15724,226,1395,136
3622,-4648,1080,15700,186,1341,123
3644,-4644,1056,15784,212,1336,162
3666,-4608,1032,15564,193,1298,138
3686,-4656,968,15812,190,1327,119
3709,-4704,1028,15792,164,1320,137
3731,-4608,908,15736,176,1319,138
3754,-4660,964,15736,164,1364,94
3775,-4644,1012,15728,191,1360,125
3798,-4692,960,15648,219,1356,119
3819,-4640,948,15824,156,1352,102
3842,-4660,1000,15696,182,1388,128
3864,-4596,980,15672,234,1331,137
3885,-4672,992,15772,199,1324,86
3907,-4600,972,15672,193,1332,135
3930,-4680,968,15816,185,1352,110
3952,-4636,976,15652,181,1346,144
3974,-4676,1008,15732,167,1378,130
3996,-4616,988,15708,173,1345,114
4018,-4640,1040,15736,160,1356,124
4038,-4636,1012,15632,189,1356,130
4061,-4640,996,15808,172,1332,127
4081,-4660,972,15760,212,1330,111
4105,-4608,1012,15696,215,1337,134
4128,-4680,992,15784,179,1353,123
4147,-4648,1016,15700,187,1357,121
4172,-4636,1000,15748,225,1337,132
4194,-4668,1040,15764,171,1328,121
4215,-4684,1004,15700,173,1329,128
4237,-4604,1024,15844,202,1359,107
4259,-4712,996,15700,208,1350,137
4282,-4644,948,15628,178,1335,112
4303,-4620,992,15712,173,1339,158
4324,-4664,1068,15716,209,1332,139
4348,-4644,908,15748,188,1327,105
4370,-4660,1012,15672,192,1362,138
4391,-4620,1012,15744,188,1341,145
4414,-4644,976,15692,203,1321,109
4436,-4644,1056,15700,199,1356,139
4458,-4584,980,15760,196,1331,118
4479,-4596,968,15768,186,1330,110
4497,-4652,1068,15824,222,1350,141
4522,-4692,952,15676,212,1343,96
4546,-4660,984,15764,190,1363,115
4568,-4684,1024,15732,189,1377,136
4590,-4664,996,15656,191,1329,141
4609,-4660,1016,15776,212,1343,154
4632,-4548,980,15728,190,1357,158
4656,-4692,1040,15752,197,1322,128
4677,-4620,988,15736,189,1268,155
4700,-4488,1024,15632,182,1372,128
4722,-4660,1036,15696,198,1364,151
4744,-4684,1024,15628,174,1290,122
4765,-4696,1008,15680,207,1335,137
4787,-4600,984,15672,196,1343,124
4810,-4648,1028,15616,171,1341,160
4832,-4556,1024,15640,192,1326,147
4853,-4604,976,15780,184,1318,105
4876,-4648,992,15688,179,1382,127
4897,-4660,968,15708,198,1329,133
4913,-4672,992,15668,213,1294,125
4942,-4600,996,15596,185,1367,126
4964,-4648,1000,15704,203,1322,132
4986,-4656,1080,15752,210,1336,124
5008,-4592,1000,15700,202,1347,145
5030,-4600,992,15696,200,1343,132
5052,-4640,1036,15708,187,1347,139
5074,-4628,1048,15708,162,1328,116
5087,-4644,1012,15700,159,1342,130
5118,-4580,936,15732,195,1343,116
5139,-4600,1036,15788,176,1333,135
5153,-4680,1016,15752,234,1364,119
5183,-4708,980,15648,252,1316,130
5203,-4572,1004,15624,206,1365,131
5226,-4676,1016,15772,197,1316,82
5248,-4632,964,15704,200,1335,130
5271,-4592,992,15644,200,1315,116
5293,-4652,984,15816,192,1350,119
5316,-4644,952,15652,199,1345,133
5335,-4684,1000,15732,160,1329,126
5360,-4692,1048,15784,207,1330,143
5382,-4652,980,15572,173,1347,149
5404,-4644,1028,15820,183,1320,107
5426,-4616,984,15716,204,1326,112
5448,-4616,984,15696,192,1365,118
5469,-4696,1032,15704,190,1313,153
5491,-4684,1024,15656,175,1341,108
5513,-4632,988,15660,179,1359,99
5536,-4644,1092,15680,179,1344,149
5557,-4624,952,15708,211,1345,121
5575,-4664,1004,15680,187,1337,141
5597,-4580,1032,15744,193,1337,129
5624,-4700,988,15740,181,1333,121
5646,-4580,1000,15720,229,1325,111
5663,-4596,960,15716,201,1330,116
5688,-4580,940,15560,196,1313,94
5712,-4636,988,15776,186,1322,124
5733,-4596,988,15744,181,1335,146
5756,-4700,972,15696,194,1299,142
5777,-4632,1008,15752,193,1314,138
5796,-4728,968,15672,160,1342,127
5822,-4608,988,15612,172,1379,137
5836,-4648,1012,15840,191,1338,150
5866,-4628,1008,15756,176,1318,121
5888,-4636,984,15692,153,1316,156
5909,-4600,1000,15704,242,1360,156
5932,-4600,996,15708,213,1330,159
5954,-4612,1064,15672,150,1319,132
5975,-4652,940,15652,173,1334,97
5998,-4580,972,15664,192,1325,155
6020,-4680,1028,15752,201,1336,131
6042,-4628,984,15636,184,1277,135
6063,-4548,1012,15648,182,1338,121
6086,-4652,1012,15764,192,1363,139
6108,-4624,1044,15564,236,1300,125
6130,-4672,928,15752,185,1329,151
6152,-4648,984,15720,211,1355,125
6174,-4660,1060,15624,217,1351,118
6194,-4636,988,15632,192,1296,143
6215,-4656,1084,15664,180,1333,103
6236,-4644,996,15700,176,1336,127
6260,-4696,976,15720,161,1336,112
6275,-4676,972,15628,190,1333,127
6305,-4632,928,15760,172,1341,139
6319,-4676,988,15784,170,1355,116
6350,-4720,1012,15664,212,1336,106
6372,-4612,956,15692,201,1283,103
6393,-4660,1012,15812,135,1298,113
6416,-4540,988,15732,175,1374,101
6438,-4648,1004,15732,209,1337,98
6460,-4556,1012,15704,190,1298,117
6479,-4564,976,15592,188,1329,121
6504,-4672,1036,15764,207,1357,130
6525,-4688,1008,15684,169,1353,120
6548,-4648,976,15688,176,1349,124
6570,-4608,1068,15732,172,1327,146
6591,-4636,996,15672,212,1378,125
6614,-4580,1012,15668,194,1346,121
6636,-4648,1016,15780,189,1309,125
6658,-4508,960,15724,181,1334,115
6679,-4680,908,15740,156,1352,142
6702,-4672,1052,15688,154,1310,141
6724,-4600,976,15688,192,1339,131
6746,-4584,1020,15644,179,1306,102
6765,-4668,1012,15656,164,1369,107
6790,-4616,984,15700,191,1335,110
6811,-4652,1084,15740,222,1292,147
6834,-4600,1008,15652,201,1358,101
6856,-4672,1012,15720,155,1311,139
6877,-4692,1020,15784,172,1333,131
6899,-4524,1020,15636,195,1338,116
6922,-4640,1012,15688,177,1305,146
6944,-4620,1076,15740,173,1338,141
6966,-4656,1044,15620,190,1329,146
6987,-4628,992,15704,170,1318,115
7009,-4636,1060,15732,188,1333,127
7032,-4580,964,15760,205,1317,119
7047,-4712,916,15688,196,1336,139
7075,-4648,992,15616,182,1338,140
7097,-4608,1000,15648,183,1340,119
7120,-4624,1064,15776,209,1326,137
7142,-4588,960,15672,156,1322,140
7164,-4540,1008,15744,181,1316,116
7185,-4660,1012,15772,181,1343,96
7207,-4656,1016,15692,194,1354,110
7229,-4624,988,15848,198,1319,140
7251,-4580,1008,15716,172,1325,106
7274,-4648,996,15772,199,1352,156
7296,-4692,1000,15724,223,1327,129
7316,-4580,996,15748,198,1325,126
7340,-4616,1004,15656,186,1308,123
7362,-4636,944,15712,199,1380,111
7384,-4568,964,15720,228,1351,124
7403,-4596,948,15860,196,1324,137
7427,-4608,1028,15788,178,1331,123
7448,-4608,1048,15632,179,1352,127
7464,-4624,944,15724,177,1336,146
7494,-4612,976,15692,170,1336,146
7515,-4612,1012,15620,177,1365,151
7538,-4576,1012,15588,190,1358,161
7560,-4600,1032,15708,180,1318,155
7582,-4644,1028,15676,198,1304,136
7604,-4664,992,15752,184,1333,115
7625,-4680,924,15700,184,1282,116
7647,-4656,980,15780,174,1330,118
7669,-4588,1048,15736,182,1312,129
7691,-4608,1048,15728,197,1318,122
7708,-4632,956,15640,194,1344,130
7736,-4640,1020,15768,178,1324,129
7758,-4584,968,15684,205,1342,111
7780,-4600,984,15744,173,1328,136
7801,-4596,964,15736,190,1335,156
7823,-4660,968,15672,202,1313,135
7846,-4676,1032,15712,191,1321,102
7867,-4616,1020,15620,187,1341,109
7888,-4588,1028,15740,196,1347,118
7912,-4636,972,15732,201,1337,148
7934,-4636,1024,15744,204,1330,127
7953,-4584,1008,15732,174,1303,155
7976,-4640,1004,15752,175,1340,109
7998,-4648,1052,15628,200,1350,129
8022,-4628,980,15688,215,1359,111
8044,-4656,1040,15676,169,1342,166
8065,-4620,980,15676,145,1343,102
8088,-4640,984,15628,211,1326,133
8110,-4680,976,15712,188,1327,106
8132,-4676,1000,15676,185,1322,130
8153,-4620,988,15708,200,1322,78
8175,-4592,1004,15724,201,1379,103
8197,-4668,1000,15660,193,1343,135
8220,-4696,992,15796,193,1321,99
8241,-4636,968,15616,198,1340,108
8264,-4720,960,15756,176,1355,107
8285,-4640,1004,15708,200,1307,130
8308,-4592,1028,15572,171,1339,107
8330,-4644,976,15696,193,1333,143
8352,-4608,1036,15736,223,1342,144
8370,-4588,928,15664,181,1294,109
8397,-4572,1020,15744,159,1355,125
8418,-4596,1004,15668,199,1334,150
8440,-4612,956,15664,196,1311,143
8462,-4644,968,15736,194,1343,92
8480,-4616,1000,15732,200,1352,147
8504,-4640,964,15672,185,1356,136
8528,-4620,1028,15772,180,1358,120
8550,-4600,984,15652,218,1336,124
8572,-4672,1000,15740,181,1357,150
8593,-4584,1040,15780,208,1342,132
8616,-4648,1028,15644,179,1339,118
8637,-4676,1028,15820,160,1315,138
8659,-4620,1044,15772,201,1352,102
8674,-4640,1028,15684,173,1360,130
8704,-4624,1028,15756,226,1331,99
8724,-4652,992,15780,196,1352,148
8747,-4576,1004,15696,209,1361,158
8770,-4616,1032,15740,215,1324,102
8791,-4604,996,15736,181,1350,118
8814,-4632,1008,15720,182,1309,120
8835,-4584,1056,15812,201,1352,95
8858,-4604,1004,15672,176,1380,143
8880,-4592,980,15708,150,1342,122
8897,-4644,1080,15768,188,1324,108
8924,-4608,960,15656,206,1315,152
8946,-4572,952,15704,198,1385,142
8964,-4636,956,15644,158,1318,132
8990,-4676,992,15704,177,1353,108
9008,-4600,992,15764,194,1295,132
9031,-4632,1004,15560,195,1320,128
9054,-4668,1028,15676,205,1348,142
9077,-4588,1036,15768,183,1369,167
9099,-4528,996,15684,196,1331,125
9121,-4640,1048,15740,160,1332,103
9136,-4680,980,15744,186,1371,108
9166,-4612,988,15664,163,1323,144
9186,-4628,988,15752,221,1328,122
9210,-4656,1016,15720,195,1319,110
9231,-4664,988,15688,151,1354,130
9254,-4652,1032,15636,188,1337,132
9276,-4648,1036,15700,205,1324,153
9297,-4652,980,15580,179,1337,150
9320,-4608,1028,15680,181,1328,113
9342,-4620,964,15732,185,1356,139
9363,-4592,964,15628,183,1322,100
9385,-4640,964,15728,196,1362,98
9408,-4644,908,15688,206,1384,130
9430,-4664,968,15712,202,1348,137
9453,-4576,992,15712,166,1315,154
9473,-4680,928,15600,224,1333,106
9496,-4656,1024,15720,214,1349,138
9518,-4632,956,15660,208,1345,139
9540,-4652,980,15652,205,1356,102
9562,-4664,1024,15728,171,1340,131
9583,-4716,1020,15764,216,1288,134
9606,-4608,1008,15664,201,1310,131
9628,-4616,968,15856,163,1322,137
9648,-4620,1008,15640,200,1349,150
9671,-4616,1012,15664,165,1306,96
9694,-4608,1020,15712,213,1363,117
9715,-4592,952,15772,196,1352,113
9738,-4676,992,15800,172,1334,129
9759,-4660,1016,15688,178,1315,114
9782,-4636,984,15708,213,1324,124
9803,-4640,1044,15632,166,1325,153
9826,-4628,1024,15708,198,1314,138
9847,-4688,1056,15688,200,1354,132
9870,-4672,968,15756,171,1349,112
9892,-4608,1012,15700,171,1329,149
9914,-4688,1072,15848,213,1329,133
9935,-4664,980,15700,216,1318,127
9958,-4576,1028,15648,172,1358,171
9974,-4664,996,15676,201,1315,140
10002,-4708,1020,15696,173,1327,100
10024,-4572,984,15732,202,1334,119
10045,-4572,964,15780,203,1298,117
10064,-4632,984,15668,206,1343,105
10088,-4540,972,15772,216,1336,137
10109,-4680,1028,15684,153,1351,115
10133,-4656,968,15700,157,1311,121
10156,-4552,988,15724,187,1331,151
10175,-4652,996,15700,196,1343,120
10198,-4628,1036,15636,177,1374,125
10213,-4592,920,15640,222,1342,133
10244,-4580,1008,15732,183,1325,133
10266,-4616,1016,15704,182,1348,140
10288,-4632,1016,15632,179,1327,131
10308,-4640,1032,15676,169,1314,138
10331,-4644,984,15592,197,1299,136
10353,-4692,1004,15748,199,1329,135
10375,-4616,1036,15724,167,1307,140
10397,-4636,944,15692,177,1342,104
10419,-4588,996,15748,166,1355,150
10436,-4660,1020,15688,235,1351,100
10463,-4564,1016,15768,190,1362,102
10486,-4608,1012,15660,158,1342,125
10507,-4576,992,15668,224,1352,114
10525,-4636,1000,15700,134,1335,117
10552,-4676,1036,15708,181,1362,130
10573,-4564,992,15696,224,1277,117
10597,-4624,1004,15808,161,1311,152
10613,-4612,984,15600,189,1359,153
10638,-4644,1016,15668,191,1317,123
10661,-4628,1000,15752,201,1346,116
10684,-4616,1016,15664,207,1340,129
10705,-4624,1028,15788,218,1362,125
10720,-4688,1000,15764,173,1342,131
10749,-4572,1004,15596,175,1330,111
10771,-4564,1052,15708,177,1321,143
10794,-4612,964,15748,203,1366,115
10815,-4640,928,15792,197,1343,129
10838,-4620,952,15680,184,1343,136
10860,-4612,1016,15716,198,1355,103
10882,-4592,992,15556,197,1355,144
10904,-4628,936,15752,203,1362,146
10925,-4632,968,15688,165,1344,149
10947,-4648,1036,15824,195,1350,135
10970,-4668,940,15792,242,1351,171
10991,-4624,992,15744,175,1360,134
11013,-4600,968,15656,195,1375,139
11035,-4556,1052,15752,218,1338,136
11058,-4592,1000,15660,200,1339,131
11080,-4600,936,15720,170,1325,123
11101,-4632,1040,15660,213,1372,126
11121,-4656,976,15588,222,1304,118
11147,-4688,976,15812,223,1358,130
11166,-4660,956,15672,194,1338,127
11187,-4532,964,15620,204,1345,128
11202,-4696,984,15768,183,1326,124
11233,-4616,1012,15720,187,1368,121
11254,-4664,964,15684,215,1353,98
11276,-4628,984,15800,172,1315,117
11299,-4696,976,15716,208,1335,141
11321,-4656,1000,15600,193,1367,161
11344,-4592,1040,15712,203,1323,131
11365,-4660,992,15648,188,1346,157
11388,-4612,1000,15740,182,1341,139
11409,-4628,1008,15688,193,1302,110
11431,-4652,1008,15776,181,1333,99
11454,-4640,1044,15724,209,1357,137
11475,-4600,988,15736,198,1362,141
11498,-4608,940,15708,202,1296,118
11520,-4576,1012,15772,176,1336,110
11536,-4648,972,15612,165,1356,141
11564,-4612,1008,15736,172,1349,134
11586,-4528,948,15764,164,1314,119
11608,-4620,1020,15656,199,1378,155
11630,-4580,972,15804,185,1326,148
11652,-4672,1004,15612,261,1382,138
11672,-4608,1048,15748,206,1307,151
11696,-4596,1020,15684,165,1355,110
11717,-4700,1008,15676,184,1363,93
11739,-4712,980,15624,174,1318,114
11752,-4600,1000,15664,181,1357,129
11784,-4604,1020,15604,211,1374,136
11804,-4596,1036,15572,241,1371,114
11827,-4620,1044,15660,216,1330,135
11850,-4636,940,15496,183,1345,153
11872,-4636,1012,15752,195,1370,131
11894,-4632,972,15676,222,1309,145
11915,-4600,964,15804,155,1383,121
11936,-4616,1028,15668,209,1343,96
11959,-4652,972,15708,159,1369,136
11981,-4692,960,15688,164,1341,147
12004,-4612,1048,15740,210,1298,120
12026,-4624,1008,15628,194,1326,108
12047,-4604,1060,15740,193,1367,125
12070,-4632,1012,15804,184,1335,161
12091,-4604,1000,15644,197,1323,129
12112,-4672,1056,15684,189,1375,111
12136,-4660,1040,15676,173,1329,127
12157,-4656,972,15740,166,1331,115
12180,-4624,1016,15688,190,1366,103
12202,-4572,1092,15736,193,1357,132
12224,-4632,988,15628,207,1358,138
12246,-4648,968,15712,170,1338,116
12266,-4688,996,15644,179,1294,97
12290,-4624,988,15552,199,1369,131
12311,-4600,1028,15760,154,1356,112
12332,-4676,1024,15704,190,1337,151
12355,-4656,972,15612,155,1343,140
12378,-4608,1012,15676,173,1345,130
12399,-4616,968,15716,172,1323,121
12422,-4660,988,15724,212,1346,126
12444,-4664,1028,15776,216,1357,119
12466,-4632,1044,15688,211,1336,158
12480,-4692,968,15732,174,1320,135
12510,-4592,1032,15612,171,1359,131
12532,-4680,996,15600,206,1339,138
12554,-4640,1056,15768,228,1335,87
12575,-4660,956,15712,152,1362,113
12597,-4612,948,15700,200,1358,151
12620,-4624,1044,15672,230,1357,131
12641,-4640,980,15728,194,1344,140
12663,-4576,972,15628,211,1350,153
12686,-4572,1024,15772,206,1350,99
12708,-4592,1012,15676,200,1349,120
12729,-4616,996,15568,195,1381,129
12752,-4612,1004,15744,194,1327,159
12774,-4560,1000,15688,180,1319,145
12796,-4612,936,15756,198,1312,163
12817,-4656,1044,15732,172,1325,142
12840,-4688,908,15708,229,1348,138
12861,-4612,1060,15728,188,1304,149
12882,-4576,972,15740,209,1318,93
12905,-4648,904,15696,175,1333,100
12928,-4612,1024,15676,189,1311,127
12948,-4632,968,15692,234,1342,130
12972,-4644,1020,15816,210,1343,108
12993,-4692,936,15684,187,1348,150
13016,-4640,1012,15592,212,1362,131
13037,-4608,944,15712,218,1357,127
13059,-4688,1000,15740,204,1360,117
13082,-4680,1040,15648,149,1307,105
13102,-4688,1012,15728,170,1309,122
13126,-4608,968,15676,234,1350,105
13147,-4600,1024,15796,183,1307,89
13170,-4692,1048,15716,195,1355,122
13192,-4676,1064,15732,162,1391,115
13213,-4616,1008,15660,153,1362,123
13236,-4672,1024,15704,211,1293,112
13257,-4620,1000,15628,212,1356,126
13280,-4596,1008,15788,175,1293,116
13302,-4592,924,15704,177,1338,108
13324,-4652,968,15712,197,1363,95
13347,-4668,1016,15688,217,1360,140
13367,-4664,1024,15628,186,1332,106
13390,-4624,940,15640,206,1347,125
13410,-4576,1048,15772,215,1337,137
13433,-4608,1004,15740,178,1352,120
13455,-4552,980,15680,209,1321,159
13470,-4544,1048,15824,216,1307,114
13500,-4648,964,15676,225,1361,129
13521,-4648,1020,15768,224,1317,139
13544,-4680,1012,15728,175,1335,123
13565,-4596,976,15696,191,1330,116
13588,-4636,1016,15660,197,1367,133
13610,-4664,1056,15684,210,1312,123
13631,-4640,1020,15644,192,1351,153
13654,-4580,976,15752,190,1362,117
13674,-4700,984,15716,224,1355,99
13698,-4628,976,15672,190,1311,165
13720,-4632,1080,15612,198,1330,154
13742,-4636,1004,15788,167,1337,116
13764,-4620,972,15768,185,1373,115
13780,-4696,1024,15744,168,1295,109
13808,-4696,956,15672,181,1294,113
13830,-4560,1000,15808,206,1338,116
13852,-4700,996,15648,190,1318,104
13874,-4644,1016,15744,183,1345,100
13895,-4608,940,15784,217,1288,113
13913,-4608,1008,15760,199,1328,132
13936,-4716,1020,15664,178,1350,113
13959,-4656,1016,15768,174,1309,116
13982,-4640,988,15696,228,1358,141
14006,-4632,992,15652,228,1353,142
14028,-4584,992,15752,176,1336,114
14050,-4584,1004,15744,204,1308,145
14071,-4580,996,15768,174,1360,132
14091,-4676,1032,15768,195,1335,107
14115,-4620,924,15652,189,1323,116
14138,-4620,984,15712,170,1322,149
14160,-4684,1048,15648,163,1331,145
14174,-4604,900,15660,212,1326,124
14204,-4628,984,15748,225,1347,141
14225,-4692,960,15736,196,1349,141
14247,-4628,984,15724,163,1335,129
14263,-4580,960,15616,213,1358,149
14292,-4676,1008,15744,208,1330,116
14313,-4628,1004,15740,204,1337,100
14336,-4668,1056,15784,193,1382,108
14358,-4616,1000,15788,234,1337,120
14380,-4660,1028,15668,180,1334,112
14402,-4628,996,15736,167,1331,133
14424,-4596,1048,15744,172,1330,131
14446,-4604,1000,15732,183,1346,132
14467,-4604,1040,15700,179,1367,131
14489,-4712,912,15636,201,1337,118
14511,-4668,984,15764,184,1290,130
14533,-4552,960,15676,218,1390,98
14554,-4732,1004,15648,169,1349,148
14577,-4628,1056,15728,218,1303,153
14598,-4672,1020,15632,186,1341,112
14622,-4648,1028,15680,172,1337,133
14635,-4632,972,15660,199,1315,149
14665,-4652,1040,15708,173,1299,137
14687,-4616,1000,15724,201,1320,140
14709,-4640,984,15716,211,1345,125
14731,-4600,888,15596,153,1319,124
14754,-4584,1004,15760,203,1342,103
14775,-4588,1012,15672,198,1347,124
14797,-4632,1008,15680,179,1333,143
14819,-4676,1040,15696,203,1358,148
14842,-4608,984,15736,161,1332,106
14864,-4676,940,15720,146,1338,103
14886,-4608,996,15784,216,1373,150
14907,-4548,972,15712,214,1325,136
14930,-4660,1000,15776,210,1385,129
14951,-4616,960,15804,199,1380,135
14970,-4620,1044,15688,190,1307,104
14996,-4624,1008,15604,188,1338,114
15017,-4604,944,15776,175,1370,106
15037,-4648,1008,15632,189,1346,131
15059,-4676,1004,15728,207,1301,143
15083,-4560,972,15656,226,1361,126
15106,-4684,1008,15688,220,1343,120
15127,-4692,980,15780,197,1323,124
15150,-4576,992,15756,196,1297,137
15172,-4680,964,15764,192,1359,119
15194,-4600,1064,15724,221,1370,107
15214,-4644,976,15656,228,1339,147
15236,-4664,1012,15708,168,1348,104
15259,-4520,1024,15632,215,1346,121
15274,-4572,952,15744,173,1355,139
15303,-4600,964,15664,188,1341,133
15326,-4668,940,15696,193,1323,138
15347,-4560,1028,15716,220,1322,167
15364,-4644,968,15680,213,1331,141
15391,-4628,1004,15636,186,1313,139
15412,-4616,1036,15636,182,1316,139
15435,-4576,996,15756,173,1349,118
15458,-4584,988,15592,196,1377,121
15475,-4636,992,15724,215,1353,83
15502,-4556,1004,15656,187,1306,114
15524,-4624,988,15708,196,1345,143
15542,-4672,1000,15668,205,1386,120
15563,-4664,1008,15636,206,1313,135
15587,-4616,1040,15672,175,1346,135
15611,-4616,1004,15800,171,1344,134
15632,-4636,976,15672,186,1332,140
15654,-4620,1008,15672,184,1326,135
15678,-4600,1044,15744,225,1292,103
15698,-4568,1032,15772,208,1336,143
15722,-4724,1000,15648,175,1388,103
15743,-4648,1000,15788,197,1323,128
15766,-4616,944,15728,173,1347,102
15787,-4612,988,15684,187,1351,116
15809,-4672,984,15752,200,1358,114
15828,-4600,1004,15604,170,1320,121
15853,-4644,1028,15652,201,1346,119
15873,-4628,980,15720,210,1347,126
15897,-4708,968,15636,175,1363,102
15919,-4608,992,15748,185,1347,142
15942,-4608,956,15584,180,1345,121
15963,-4608,944,15772,220,1324,137
15986,-4684,1028,15780,224,1330,140
16008,-4624,968,15712,206,1368,177
16029,-4640,952,15652,190,1334,106
16048,-4560,976,15712,220,1357,129
16069,-4656,956,15652,190,1374,132
16094,-4644,1076,15640,206,1359,117
16117,-4608,992,15748,199,1323,158
16139,-4604,1040,15688,204,1315,116
16161,-4676,940,15624,154,1350,112
16183,-4636,1044,15720,186,1324,151
16205,-4636,980,15664,174,1368,125
16226,-4636,984,15688,199,1369,147
16249,-4716,988,15648,182,1334,115
16271,-4596,1028,15720,203,1353,105
16293,-4636,1052,15736,216,1337,140
16316,-4628,1000,15728,215,1324,121
16338,-4612,960,15640,205,1326,140
16358,-4616,964,15700,186,1309,96
16381,-4608,1036,15780,171,1330,147
16404,-4640,996,15684,200,1352,136
16425,-4564,1048,15680,207,1376,119
16447,-4608,948,15684,213,1362,142
16469,-4668,1004,15708,195,1319,132
16492,-4620,968,15768,213,1380,113
16514,-4620,944,15692,228,1351,137
16535,-4596,1016,15792,200,1324,132
16558,-4640,988,15708,215,1319,139
16575,-4636,1008,15648,197,1318,147
16602,-4676,980,15736,197,1346,105
16624,-4632,1044,15656,183,1351,129
16646,-4700,1048,15704,224,1354,135
16667,-4604,976,15744,210,1350,115
16689,-4612,952,15696,209,1311,112
16711,-4640,988,15756,189,1338,112
16734,-4684,976,15608,134,1342,123
16753,-4636,1004,15744,165,1343,152
16776,-4640,992,15760,217,1341,144
16800,-4656,1000,15640,217,1350,120
16821,-4632,976,15704,200,1325,144
16842,-4612,952,15616,197,1339,138
16866,-4604,1016,15592,228,1325,117
16888,-4580,1016,15756,211,1347,127
16910,-4644,1032,15724,224,1337,140
16932,-4600,1008,15716,160,1355,122
16954,-4632,984,15716,204,1346,118
16976,-4652,1008,15652,215,1351,139
16997,-4656,1008,15668,217,1373,142
17019,-4652,996,15728,173,1300,133
17041,-4564,996,15676,194,1355,139
17063,-4676,932,15588,183,1338,125
17080,-4632,1076,15792,173,1353,127
17107,-4608,996,15676,190,1358,121
17129,-4632,1020,15708,195,1349,135
17152,-4648,1012,15660,213,1339,117
17174,-4576,920,15660,175,1345,140
17195,-4628,1040,15768,188,1354,121
17216,-4680,996,15728,169,1326,103
17240,-4592,988,15672,196,1331,133
17261,-4644,972,15668,177,1349,131
17284,-4668,980,15720,203,1349,131
17305,-4680,1008,15700,209,1271,147
17327,-4668,992,15708,183,1344,107
17350,-4580,992,15744,186,1373,141
17371,-4668,980,15684,211,1345,135
17394,-4624,984,15748,207,1307,131
17415,-4568,976,15696,239,1345,125
17438,-4596,984,15664,144,1349,105
17452,-4620,964,15688,200,1339,126
17481,-4620,1032,15752,199,1325,120
17503,-4664,1012,15700,188,1336,129
17526,-4624,1016,15688,211,1365,133
17546,-4620,996,15708,218,1359,160
17570,-4648,1028,15648,188,1356,120
17591,-4664,1028,15632,199,1338,113
17614,-4596,972,15628,217,1355,117
17636,-4568,988,15620,207,1385,135
17657,-4608,1052,15600,195,1354,114
17680,-4640,992,15788,202,1337,124
17702,-4636,1068,15804,215,1379,117
17725,-4592,1032,15644,193,1337,131
17743,-4552,1012,15776,179,1311,131
17758,-4632,976,15756,199,1350,144
17786,-4652,940,15676,177,1348,138
17812,-4668,1048,15876,192,1376,121
17825,-4676,992,15720,183,1335,139
17856,-4596,988,15740,184,1353,125
17878,-4716,988,15660,194,1368,116
17899,-4632,996,15712,173,1344,135
17921,-4720,1048,15812,180,1331,145
17943,-4608,1032,15780,192,1357,135
17965,-4628,964,15652,187,1342,133
17987,-4628,1000,15728,201,1364,133
18008,-4616,1032,15704,207,1316,110
18031,-4644,1080,15668,200,1345,118
18053,-4656,1028,15636,227,1381,110
18076,-4596,968,15756,231,1341,148
18097,-4632,968,15732,198,1321,172
18120,-4608,988,15700,187,1330,137
18141,-4620,980,15716,184,1353,101
18163,-4604,992,15672,209,1314,132
18185,-4632,1016,15684,179,1332,123
18203,-4636,948,15696,194,1326,124
18230,-4644,984,15760,147,1316,133
18252,-4644,948,15732,214,1336,131
18275,-4664,948,15648,218,1301,119
18296,-4616,928,15660,181,1364,123
18317,-4704,960,15712,160,1345,159
18336,-4660,948,15652,179,1350,160
18362,-4600,1052,15740,188,1292,137
18376,-4596,1008,15804,223,1359,121
18406,-4676,980,15680,199,1325,118
18427,-4604,956,15724,180,1358,125
18447,-4644,1020,15652,185,1353,110
18471,-4640,964,15740,183,1317,130
18494,-4656,1004,15824,191,1329,136
18515,-4624,1008,15756,209,1370,126
18537,-4760,1000,15720,198,1308,116
18559,-4604,1004,15632,165,1327,138
18582,-4684,968,15612,188,1343,143
18603,-4600,952,15812,186,1341,130
18624,-4664,936,15676,137,1302,115
18648,-4656,992,15640,174,1306,123
18669,-4700,1004,15672,227,1324,103
18691,-4636,980,15728,184,1355,125
18713,-4672,1016,15664,250,1301,125
18736,-4604,1020,15748,194,1311,106
18758,-4644,1032,15776,200,1380,112
18775,-4692,1048,15760,196,1346,121
18802,-4664,1004,15764,187,1324,132
18824,-4568,968,15724,165,1338,130
18844,-4616,972,15692,197,1364,123
18866,-4576,1004,15712,166,1342,136
18889,-4620,992,15708,205,1332,134
18912,-4596,1024,15716,195,1323,131
18933,-4692,976,15668,226,1356,122
18955,-4688,1036,15700,200,1342,131
18977,-4640,1008,15688,184,1332,125
18998,-4656,992,15636,171,1380,182
19022,-4656,968,15800,224,1360,116
19043,-4696,984,15748,193,1331,127
19065,-4632,980,15672,162,1318,101
19087,-4564,996,15768,177,1364,115
19110,-4636,1000,15664,225,1353,125
19131,-4640,1016,15704,198,1311,136
19153,-4572,988,15728,166,1318,93
19175,-4616,1044,15708,197,1370,129
19198,-4540,1016,15724,197,1327,146
19219,-4648,960,15812,192,1355,128
19242,-4644,964,15704,187,1334,138
19264,-4612,944,15776,162,1329,144
19286,-4632,984,15704,194,1337,112
19308,-4640,976,15552,175,1307,126
19325,-4616,968,15688,169,1300,86
19349,-4640,1016,15740,178,1340,118
19375,-4676,1028,15704,202,1350,127
19393,-4616,960,15704,175,1329,140
19415,-4604,992,15772,195,1356,97
19436,-4636,960,15596,181,1326,126
19459,-4676,1036,15780,213,1317,134
19475,-4620,992,15740,168,1331,127
19506,-4588,944,15732,201,1343,147
19526,-4680,972,15736,171,1341,159
19549,-4600,984,15608,188,1332,130
19572,-4544,952,15628,201,1360,164
19594,-4660,996,15684,184,1341,133
19616,-4652,1000,15760,200,1327,134
19637,-4636,1072,15788,213,1317,147
19659,-4572,1000,15620,206,1334,143
19682,-4580,952,15668,225,1336,132
19703,-4640,1020,15736,199,1302,154
19725,-4664,976,15708,197,1375,118
19747,-4656,1028,15708,205,1337,111
19769,-4676,980,15748,173,1314,102
19792,-4604,1016,15692,186,1353,119
19813,-4648,1016,15652,190,1342,109
19835,-4620,1012,15740,170,1322,133
19858,-4564,976,15640,211,1352,136
19878,-4616,992,15760,230,1319,132
19892,-4640,1056,15784,193,1343,132
19923,-4588,996,15648,182,1363,163
19945,-4676,968,15672,191,1310,142
19968,-4668,1012,15720,207,1337,137
19989,-4596,980,15780,224,1316,103
20012,-4644,996,15760,171,1347,143
20034,-4624,992,15656,198,1329,126
20055,-4680,1000,15652,159,1344,95
20077,-4576,976,15776,184,1317,136
20091,-4564,1000,15668,181,1374,138
20121,-4544,1000,15756,188,1374,132
20142,-4692,988,15776,205,1336,120
20165,-4588,996,15636,230,1322,143
20187,-4572,984,15620,203,1291,122
20210,-4676,1008,15744,158,1366,133
20231,-4728,1004,15784,206,1361,85
20253,-4616,1012,15756,184,1332,121
20276,-4664,996,15648,212,1305,137
20298,-4620,968,15780,181,1352,136
20320,-4660,1068,15772,235,1306,100
20341,-4644,924,15604,164,1347,143
20364,-4572,972,15712,189,1327,111
20385,-4696,992,15768,174,1350,115
20407,-4628,1000,15700,199,1328,147
20430,-4624,1024,15728,191,1324,123
20452,-4600,1016,15776,187,1331,150
20473,-4592,1056,15768,166,1334,112
20495,-4620,1036,15700,173,1342,164
20518,-4640,1036,15676,153,1318,131
20539,-4668,936,15760,224,1373,110
20561,-4580,972,15752,192,1351,146
20583,-4640,1016,15720,189,1320,114
20605,-4608,996,15768,217,1361,124
20627,-4636,988,15672,195,1300,121
20650,-4568,996,15688,164,1354,136
20670,-4580,1016,15716,174,1366,108
20693,-4696,1012,15752,178,1319,123
20715,-4592,884,15712,177,1334,141
20738,-4604,1048,15764,163,1350,104
20759,-4668,1072,15648,205,1330,134
20781,-4664,940,15616,167,1338,136
20803,-4616,964,15800,207,1344,100
20825,-4680,1004,15656,193,1351,139
20841,-4636,928,15756,191,1376,145
20869,-4612,1048,15700,185,1263,132
20891,-4576,984,15628,207,1341,135
20913,-4612,1008,15548,217,1365,130
20933,-4688,1060,15740,182,1327,134
20958,-4600,1008,15736,183,1338,138
20975,-4540,912,15752,200,1280,118
21000,-4628,1036,15708,226,1354,151
21024,-4600,996,15676,190,1336,112
21044,-4680,1000,15712,186,1325,115
21068,-4588,924,15776,188,1347,131
21086,-4608,920,15640,207,1351,126
21111,-4652,1020,15664,205,1402,147
21133,-4636,1004,15644,173,1298,119
21155,-4516,984,15772,189,1339,131
21170,-4652,980,15728,210,1367,149
21199,-4616,1008,15676,214,1316,117
21220,-4664,996,15708,220,1343,114
21243,-4644,988,15672,180,1358,137
21266,-4628,1028,15676,176,1335,104
21288,-4624,988,15728,196,1299,158
21309,-4628,1036,15680,165,1341,125
21331,-4640,976,15660,203,1302,135
21352,-4692,980,15688,205,1351,110
21375,-4668,964,15636,193,1343,124
21397,-4636,1064,15740,187,1304,99
21419,-4592,992,15784,185,1316,133
21441,-4640,984,15704,193,1325,145
21463,-4664,972,15648,197,1340,118
21481,-4664,1028,15772,237,1346,164
21508,-4548,964,15756,195,1335,116
21529,-4640,1020,15640,182,1317,154
21552,-4612,1008,15708,208,1300,141
21573,-4620,924,15612,203,1340,113
21595,-4584,976,15664,193,1379,120
21618,-4708,1020,15740,185,1308,132
21630,-4544,1032,15712,199,1357,80
21662,-4584,980,15724,198,1335,118
21683,-4644,1024,15792,201,1332,142
21706,-4640,948,15684,172,1284,169
21726,-4632,964,15720,211,1349,124
21749,-4640,988,15640,200,1344,116
21765,-4624,992,15700,210,1319,137
21793,-4596,984,15728,239,1304,129
21814,-4580,968,15648,175,1364,135
21836,-4604,984,15664,235,1328,120
21860,-4684,992,15764,188,1319,120
21881,-4620,996,15652,184,1280,125
21903,-4628,1004,15752,202,1324,127
21925,-4688,968,15612,215,1351,111
21947,-4672,980,15668,152,1334,124
21968,-4612,1008,15636,186,1299,128
21992,-4560,1000,15636,173,1322,135
22014,-4676,1028,15688,192,1328,139
22035,-4632,964,15728,226,1331,116
22058,-4676,1064,15724,191,1293,125
22079,-4624,1000,15716,215,1369,140
22100,-4660,996,15748,251,1363,156
22124,-4540,948,15732,182,1330,120
22144,-4660,1060,15700,205,1330,111
22168,-4600,1024,15716,190,1385,134
22188,-4624,944,15684,218,1358,125
22212,-4688,1016,15756,211,1324,104
22232,-4624,992,15712,202,1325,143
22254,-4600,944,15648,195,1343,133
22278,-4696,1028,15796,174,1319,126
22299,-4672,968,15576,187,1370,112
22322,-4596,1000,15752,169,1330,131
22343,-4692,976,15724,184,1364,127
22365,-4608,996,15612,165,1341,126
22386,-4636,944,15704,190,1322,86
22409,-4600,1020,15688,173,1336,97
22431,-4632,1008,15624,191,1340,140
22453,-4608,1044,15688,183,1358,123
22474,-4616,972,15752,196,1330,135
22496,-4624,980,15676,183,1326,98
22519,-4676,980,15724,207,1317,153
22541,-4644,1000,15676,188,1329,117
22564,-4596,1016,15696,177,1337,118
22585,-4696,1040,15720,196,1314,142
22607,-4552,1020,15588,174,1354,99
22629,-4612,988,15696,176,1357,122
22652,-4696,1020,15608,174,1367,127
22674,-4636,1000,15620,194,1342,147
22694,-4620,976,15704,226,1335,152
22717,-4588,1080,15656,223,1371,130
22738,-4680,980,15720,170,1308,126
22759,-4668,968,15716,196,1366,146
22781,-4644,984,15764,202,1365,101
22805,-4664,984,15596,161,1351,142
22826,-4640,984,15684,206,1302,126
22849,-4624,984,15712,217,1375,116
22871,-4644,988,15700,174,1345,124
22892,-4664,988,15676,173,1330,115
22909,-4572,1040,15676,186,1340,141
22938,-4660,976,15708,201,1310,135
22960,-4664,1004,15700,199,1356,111
22981,-4616,956,15756,213,1367,125
23003,-4640,988,15800,183,1328,101
23026,-4616,964,15748,200,1334,89
23047,-4580,992,15628,265,1355,112
23069,-4596,1012,15748,206,1343,118
23091,-4680,992,15720,175,1344,150
23113,-4696,1048,15616,202,1342,97
23136,-4676,1040,15728,206,1354,99
23158,-4640,944,15632,214,1349,131
23179,-4600,948,15752,196,1363,93
23200,-4708,1060,15736,150,1293,131
23222,-4648,944,15728,195,1356,150
23245,-4600,952,15760,205,1335,143
23268,-4596,964,15612,184,1365,129
23289,-4628,948,15576,222,1344,119
23310,-4640,976,15688,209,1313,138
23332,-4532,964,15824,232,1362,144
23355,-4572,976,15732,203,1353,105
23377,-4660,1064,15696,181,1324,155
23400,-4604,1024,15684,216,1379,122
23421,-4612,1064,15720,201,1375,103
23435,-4648,960,15764,189,1346,111
23465,-4580,976,15648,187,1332,104
23486,-4612,1020,15732,193,1305,108
23508,-4628,936,15740,199,1332,156
23530,-4612,1004,15664,203,1334,87
23552,-4588,976,15800,228,1322,121
23575,-4580,1008,15680,193,1381,121
23597,-4612,928,15680,220,1317,131
23619,-4624,980,15740,177,1316,147
23640,-4668,980,15632,187,1344,145
23663,-4608,976,15768,210,1337,141
23686,-4632,972,15692,182,1323,115
23705,-4636,988,15592,193,1333,119
23729,-4608,1020,15632,226,1317,134
23750,-4616,992,15820,198,1335,124
23774,-4616,1028,15688,221,1377,123
23791,-4568,980,15668,232,1325,143
23814,-4652,948,15644,231,1324,127
23838,-4616,944,15760,185,1334,95
23861,-4660,976,15768,181,1343,122
23882,-4636,1000,15660,203,1352,123
23904,-4564,964,15744,175,1356,119
23926,-4624,964,15628,189,1346,130
23949,-4652,948,15648,183,1330,126
23971,-4600,928,15668,194,1334,145
23991,-4600,976,15680,186,1326,106
24015,-4712,1004,15672,157,1379,120
24037,-4632,1040,15724,200,1307,134
24059,-4628,1032,15640,180,1315,133
24080,-4660,964,15660,186,1371,123
24103,-4588,1028,15776,207,1356,124
24124,-4696,940,15648,213,1330,120
24147,-4568,964,15580,185,1310,139
24169,-4612,972,15752,174,1357,110
24191,-4592,944,15644,180,1367,155
24212,-4664,984,15644,179,1330,133
24235,-4616,996,15692,174,1299,150
24256,-4604,956,15604,201,1345,138
24275,-4624,976,15664,199,1333,131
24302,-4628,944,15672,193,1316,126
24320,-4608,960,15616,211,1325,125
24344,-4632,1008,15712,214,1342,131
24364,-4664,1000,15712,194,1359,141
24389,-4652,968,15620,193,1324,152
24408,-4620,964,15712,182,1336,101
24434,-4632,944,15624,186,1381,136
24454,-4676,960,15772,192,1327,129
24475,-4628,976,15768,180,1315,130
24498,-4552,964,15660,181,1377,135
24521,-4696,1028,15636,226,1355,140
24543,-4648,1036,15740,203,1323,147
24565,-4684,988,15680,178,1328,137
24587,-4632,1024,15812,198,1353,121
24610,-4628,1024,15684,200,1361,123
24631,-4612,980,15660,197,1329,120
24654,-4608,1028,15720,197,1359,118
24676,-4596,1040,15680,191,1332,149
24697,-4636,984,15776,200,1346,148
24719,-4652,952,15744,212,1342,138
24742,-4588,1028,15684,174,1348,121
24763,-4612,956,15748,193,1357,121
24781,-4648,980,15860,181,1321,110
24804,-4692,896,15728,176,1366,124
24825,-4632,1036,15816,151,1346,124
24851,-4612,988,15772,180,1367,143
24870,-4576,992,15728,197,1359,106
24893,-4692,1012,15684,188,1331,141
24914,-4624,980,15744,210,1341,116
24937,-4632,1016,15692,194,1331,105
24961,-4640,1008,15700,176,1315,150
24983,-4680,1004,15728,194,1294,122
25004,-4600,996,15632,170,1313,135
25027,-4656,1056,15656,217,1348,118
25049,-4616,992,15712,240,1375,127
25071,-4672,980,15716,187,1309,108
25094,-4656,1016,15724,174,1302,119
25115,-4576,972,15612,155,1354,96
25138,-4612,1000,15696,153,1332,142
25159,-4632,992,15736,203,1338,160
25181,-4616,980,15716,198,1356,128
25203,-4652,1032,15744,180,1353,173
25225,-4652,992,15568,152,1325,137
25247,-4660,1036,15712,176,1346,126
25269,-4716,1004,15636,202,1374,158
25291,-4636,1004,15716,202,1307,133
25314,-4708,988,15616,191,1331,145
25334,-4612,952,15732,226,1310,141
25357,-4632,984,15728,195,1353,134
25379,-4656,996,15680,233,1376,128
25402,-4640,1024,15736,203,1319,140
25420,-4596,1036,15692,157,1356,136
25435,-4576,1004,15760,231,1341,154
25467,-4604,940,15744,180,1361,115
25487,-4620,1008,15672,195,1350,104
25502,-4712,1052,15624,208,1319,139
25533,-4604,1032,15724,193,1354,164
25554,-4604,984,15668,187,1309,114
25576,-4648,968,15728,196,1360,119
25598,-4680,936,15636,201,1368,141
25620,-4664,984,15788,195,1318,137
25636,-4628,980,15720,211,1321,130
25666,-4576,1012,15648,194,1359,129
25687,-4628,992,15660,167,1335,112
25708,-4620,896,15752,207,1330,125
25731,-4600,972,15756,202,1324,107
25754,-4632,1004,15756,231,1366,103
25775,-4704,1016,15672,206,1361,136
25797,-4608,976,15640,198,1321,100
25820,-4616,1008,15676,196,1329,121
25841,-4660,940,15788,177,1341,108
25863,-4512,992,15700,215,1362,126
25885,-4648,1004,15748,206,1313,148
25907,-4572,1024,15616,159,1295,140
25925,-4636,1032,15784,197,1353,114
25948,-4656,956,15732,191,1380,128
25970,-4624,896,15668,184,1337,120
25993,-4600,1052,15756,178,1323,117
26014,-4624,1016,15656,192,1362,126
26036,-4628,940,15604,180,1332,154
26054,-4508,1036,15736,232,1329,123
26083,-4656,996,15716,168,1327,150
26102,-4656,964,15644,230,1328,135
26125,-4668,1060,15692,208,1330,137
26149,-4628,972,15592,168,1350,131
26170,-4576,984,15648,188,1311,147
26193,-4560,980,15696,208,1355,130
26215,-4592,980,15592,195,1360,101
26237,-4644,956,15728,161,1344,130
26259,-4620,996,15600,168,1358,123
26280,-4636,940,15564,197,1351,119
26303,-4628,968,15768,169,1328,142
26325,-4688,1060,15652,205,1352,103
26346,-4608,972,15724,229,1342,101
26369,-4672,1012,15672,193,1326,133
26392,-4636,1020,15728,172,1309,129
26413,-4628,1012,15640,177,1322,126
26435,-4568,976,15660,209,1347,136
26454,-4664,992,15764,183,1346,143
26476,-4596,1056,15676,224,1364,105
26498,-4624,948,15708,189,1334,131
26523,-4604,980,15648,249,1361,148
26545,-4704,972,15760,162,1355,136
26566,-4680,1044,15708,160,1320,116
26580,-4652,988,15624,191,1333,140
26611,-4660,1052,15644,187,1347,142
26631,-4580,992,15708,221,1369,135
26654,-4664,960,15712,196,1340,131
26675,-4592,1004,15720,193,1325,140
26699,-4596,992,15640,212,1355,144
26721,-4628,976,15740,192,1310,121
26742,-4592,1024,15796,209,1330,127
26764,-4588,932,15724,180,1307,160
26787,-4676,952,15716,198,1329,117
26808,-4576,1016,15736,174,1304,118
26826,-4676,968,15668,188,1315,145
26853,-4616,1040,15812,190,1317,137
26875,-4668,1100,15736,188,1348,142
26896,-4608,980,15636,182,1352,114
26919,-4616,1032,15732,193,1303,141
26941,-4564,1000,15768,203,1369,127
26963,-4612,1012,15752,220,1337,140
26986,-4624,1000,15720,182,1337,100
27007,-4632,936,15716,154,1364,122
27028,-4612,972,15680,187,1330,134
27047,-4584,996,15696,192,1325,158
27072,-4592,948,15724,201,1360,130
27095,-4608,996,15712,206,1333,132
27114,-4628,1040,15700,206,1312,124
27136,-4652,924,15720,176,1333,153
27162,-4660,1032,15616,177,1367,100
27184,-4624,1012,15596,157,1339,145
27205,-4668,1000,15576,156,1340,120
27227,-4612,992,15744,194,1322,142
27248,-4600,944,15616,194,1367,134
27263,-4636,972,15700,197,1345,128
27294,-4648,1068,15776,184,1347,135
27314,-4656,920,15668,179,1337,114
27336,-4632,976,15724,226,1369,97
27360,-4648,1016,15832,204,1345,119
27380,-4664,996,15696,193,1334,100
27403,-4620,988,15728,181,1340,151
27425,-4672,960,15692,214,1363,110
27446,-4680,996,15624,154,1398,123
27469,-4600,952,15744,207,1326,124
27491,-4608,984,15680,188,1352,119
27512,-4640,964,15760,210,1349,126
27530,-4664,1016,15720,224,1340,109
27557,-4620,964,15712,230,1318,116
27579,-4624,992,15720,182,1300,139
27597,-4612,1060,15596,179,1372,111
27622,-4648,1008,15640,222,1330,113
27645,-4672,1012,15744,156,1297,103
27664,-4648,940,15712,180,1326,181
27686,-4596,984,15664,200,1314,130
27711,-4624,1024,15788,183,1347,135
27733,-4636,960,15724,177,1354,118
27754,-4576,984,15740,201,1357,146
27777,-4660,1008,15756,200,1325,164
27799,-4656,1032,15780,228,1334,116
27820,-4624,1052,15724,193,1310,119
27842,-4640,988,15776,157,1379,125
27865,-4668,1012,15700,203,1323,135
27887,-4652,956,15708,201,1324,121
27909,-4644,1020,15796,186,1359,128
27931,-4644,984,15668,211,1355,104
27952,-4600,996,15704,207,1339,156
27974,-4640,956,15684,193,1292,118
27997,-4584,972,15712,173,1340,111
28018,-4644,964,15768,156,1334,105
28042,-4660,1008,15652,203,1340,145
28064,-4608,960,15768,187,1335,129
28086,-4648,1024,15720,212,1311,146
28107,-4656,956,15744,176,1332,104
28125,-4620,988,15704,224,1326,151
28151,-4604,968,15680,166,1352,150
28169,-4688,968,15668,188,1372,134
28195,-4636,1020,15840,185,1354,105
28215,-4664,1040,15704,192,1340,114
28232,-4616,980,15656,215,1380,112
28262,-4584,1020,15744,166,1345,116
28284,-4680,1008,15732,181,1337,163
28305,-4640,960,15744,224,1340,136
28325,-4568,992,15808,225,1308,128
28349,-4564,976,15704,183,1330,135
28370,-4636,952,15628,191,1350,117
28394,-4624,1024,15688,177,1348,135
28415,-4608,1044,15612,205,1343,140
28437,-4628,1024,15744,207,1342,113
28460,-4704,1000,15708,173,1343,94
28482,-4620,1012,15696,194,1293,114
28503,-4572,960,15728,201,1334,132
28525,-4596,1000,15624,199,1365,130
28547,-4620,996,15732,194,1368,129
28569,-4680,1020,15612,201,1319,141
28591,-4704,948,15624,217,1356,166
28613,-4644,1060,15660,153,1362,136
28635,-4612,1040,15808,201,1326,136
28656,-4628,936,15712,182,1320,143
28678,-4596,1024,15672,170,1303,74
28701,-4608,992,15644,165,1371,147
28724,-4628,1020,15580,222,1355,143
28735,-4656,1020,15752,207,1338,118
28766,-4576,1016,15672,207,1366,130
28788,-4636,960,15668,209,1336,153
28809,-4704,996,15716,229,1326,111
28832,-4688,964,15780,194,1327,145
28853,-4628,912,15704,198,1321,115
28875,-4636,1028,15812,210,1307,118
28891,-4632,984,15616,240,1346,115
28921,-4632,960,15628,175,1327,119
28943,-4592,972,15656,170,1305,140
28965,-4648,1000,15692,177,1334,136
28986,-4592,948,15720,220,1341,104
29009,-4604,1012,15716,196,1374,139
29031,-4664,968,15600,236,1344,126
29052,-4664,988,15684,199,1321,122
29074,-4716,960,15856,176,1379,109
29097,-4624,932,15772,233,1364,124
29119,-4576,1064,15812,164,1343,102
29141,-4572,996,15704,213,1353,114
29163,-4668,1000,15680,211,1333,134
29185,-4620,1032,15652,165,1324,124
29207,-4652,1016,15704,191,1357,140
29229,-4608,1032,15592,226,1301,121
29247,-4648,948,15828,193,1327,94
29273,-4664,1000,15604,148,1385,140
29295,-4664,1024,15716,184,1320,149
29314,-4588,996,15692,221,1353,129
29339,-4592,968,15612,171,1292,137
29361,-4612,1056,15692,185,1339,146
29381,-4656,940,15688,186,1318,167
29403,-4584,1004,15672,221,1333,144
29427,-4624,1012,15720,200,1325,123
29448,-4640,936,15636,193,1336,149
29469,-4572,1012,15608,161,1317,126
29493,-4672,1032,15732,215,1347,135
29514,-4692,948,15720,163,1342,153
29536,-4688,1032,15716,180,1318,114
29558,-4572,1016,15704,194,1352,118
29580,-4632,976,15756,189,1355,117
29602,-4644,960,15664,197,1360,122
29625,-4680,1036,15836,214,1349,135
29647,-4556,988,15684,218,1312,131
29669,-4632,996,15596,205,1344,128
29690,-4600,980,15672,183,1375,113
29712,-4596,980,15700,207,1355,105
29731,-4652,952,15636,204,1305,107
29753,-4608,972,15824,157,1370,128
29774,-4644,1032,15756,196,1320,101
29800,-4588,972,15668,193,1324,145
29823,-4624,944,15780,198,1309,115
29846,-4656,1016,15708,193,1362,125
29864,-4592,1028,15688,178,1345,117
29886,-4560,948,15600,198,1351,116
29911,-4564,1040,15776,211,1327,102
29933,-4644,952,15696,188,1336,123
29955,-4640,964,15744,152,1340,107
29977,-4644,1012,15656,156,1319,104
29999,-4556,1004,15664,176,1357,150
30021,-4604,960,15624,194,1363,154
30042,-4620,1000,15768,200,1334,132
30064,-4640,960,15652,189,1393,128
30087,-4612,992,15748,174,1329,102
30109,-4632,1040,15764,236,1309,120
30130,-4640,916,15676,175,1343,134
30153,-4700,964,15676,199,1326,130
30174,-4652,980,15776,185,1343,140
30197,-4636,984,15700,222,1370,104
30219,-4632,1036,15684,177,1302,116
30241,-4632,996,15584,199,1333,101
30263,-4608,992,15788,133,1314,159
30285,-4632,1064,15760,220,1342,118
30307,-4604,980,15652,205,1355,102
30330,-4664,1004,15680,155,1364,146
30348,-4656,1052,15612,172,1372,147
30373,-4676,944,15672,206,1339,136
30386,-4616,1008,15764,180,1310,153
30416,-4640,972,15772,233,1341,117
30438,-4692,964,15632,215,1335,135
30459,-4628,984,15720,189,1303,135
30475,-4656,1024,15664,172,1310,127
30505,-4608,920,15652,200,1354,131
30525,-4692,1024,15708,209,1344,130
30549,-4632,1044,15716,169,1327,137
30570,-4608,996,15748,183,1373,140
30593,-4548,984,15696,175,1393,156
30614,-4612,984,15624,186,1346,103
30637,-4664,1084,15768,147,1347,127
30659,-4668,936,15644,201,1343,119
30680,-4628,992,15660,205,1337,121
30703,-4664,1004,15688,205,1351,109
30724,-4548,988,15696,231,1349,152
30747,-4672,1016,15668,159,1311,95
30769,-4672,976,15760,174,1359,136
30791,-4576,964,15656,185,1358,121
30813,-4684,992,15660,216,1303,136
30833,-4688,988,15732,177,1336,121
30858,-4588,1000,15668,205,1363,119
30876,-4672,956,15660,206,1353,121
30898,-4640,972,15788,197,1319,126
30923,-4620,1004,15704,183,1289,119
30941,-4636,940,15784,207,1310,114
30964,-4684,1008,15728,205,1317,112
30987,-4616,964,15732,188,1320,159
31009,-4656,968,15696,233,1347,102
31033,-4624,952,15628,140,1336,108
31054,-4588,996,15700,197,1349,79
31077,-4628,1024,15748,203,1325,129
31092,-4644,992,15584,122,1332,152
31121,-4660,960,15756,171,1342,140
31144,-4664,1016,15712,172,1330,123
31165,-4692,996,15636,220,1335,118
31188,-4612,1020,15748,205,1365,129
31209,-4624,1028,15736,203,1320,162
31230,-4656,972,15612,188,1335,127
31252,-4608,988,15688,217,1344,113
31275,-4616,992,15776,216,1346,126
31297,-4640,1000,15700,196,1351,114
31315,-4620,1060,15756,195,1294,126
31342,-4616,1008,15636,166,1347,150
31362,-4660,908,15620,227,1340,146
31381,-4656,952,15728,211,1321,135
31407,-4664,1012,15700,201,1350,121
31427,-4672,1028,15744,184,1309,141
31442,-4688,1028,15668,200,1381,128
31472,-4652,1028,15732,183,1338,150
31492,-4604,940,15760,197,1340,130
31516,-4632,980,15608,223,1377,130
31539,-4612,976,15764,211,1349,162
31561,-4676,1004,15704,155,1323,110
31583,-4588,1020,15632,248,1344,120
31605,-4604,1008,15668,169,1329,133
31627,-4732,976,15776,178,1310,115
31648,-4612,980,15604,162,1331,142
31664,-4668,992,15736,221,1360,127
31692,-4672,988,15784,148,1347,151
31715,-4592,1072,15688,194,1355,120
31736,-4588,988,15852,184,1358,134
31759,-4652,1004,15760,197,1332,134
31781,-4644,1008,15624,188,1347,143
31802,-4608,980,15808,208,1338,143
31825,-4636,980,15796,155,1332,110
31847,-4576,1008,15696,211,1369,106
31868,-4688,976,15752,188,1368,126
31891,-4664,952,15656,163,1314,125
31914,-4596,1016,15636,212,1333,134
31935,-4612,1024,15712,224,1333,114
31953,-4636,952,15672,201,1359,120
31976,-4636,1012,15768,155,1352,112
31999,-4576,1068,15640,209,1316,113
32023,-4636,1000,15668,206,1377,102
32045,-4648,956,15700,185,1329,98
32064,-4688,1024,15732,189,1321,130
32080,-4592,988,15712,177,1345,109
32111,-4612,996,15712,188,1346,140
32131,-4592,1012,15640,160,1358,146
32155,-4628,984,15704,177,1349,103
32176,-4672,956,15692,200,1302,122
32199,-4588,964,15604,191,1325,123
32221,-4616,1008,15724,177,1326,129
32241,-4648,1004,15788,210,1343,142
32264,-4648,964,15712,213,1358,142
32287,-4640,1004,15676,222,1345,133
32309,-4728,984,15720,205,1307,136
32331,-4648,1048,15680,175,1315,145
32354,-4640,1004,15704,208,1359,143
32375,-4576,952,15672,180,1373,129
32397,-4704,960,15576,206,1317,121
32419,-4660,980,15744,209,1320,155
32441,-4680,948,15620,227,1372,131
32458,-4660,956,15676,220,1279,123
32485,-4580,996,15820,202,1309,156
32508,-4528,1012,15648,182,1360,146
32528,-4656,952,15784,228,1397,115
32550,-4692,1008,15768,178,1349,143
32572,-4568,944,15720,212,1334,107
32594,-4624,1056,15800,222,1324,134
32608,-4668,948,15816,174,1343,117
32639,-4644,1000,15732,187,1331,118
32659,-4656,1016,15808,185,1346,142
32683,-4592,976,15648,178,1377,105
32705,-4644,980,15536,189,1335,120
32727,-4676,1064,15764,173,1331,115
32748,-4652,1004,15712,211,1327,121
32771,-4672,948,15748,178,1372,146
32792,-4644,992,15772,182,1323,163
32815,-4664,952,15656,181,1289,123
32836,-4544,1028,15796,191,1317,126
32858,-4660,968,15700,220,1354,121
32882,-4636,1000,15684,208,1346,139
32903,-4644,976,15760,199,1312,127
32924,-4568,972,15744,207,1348,132
32946,-4636,964,15700,168,1354,134
32969,-4704,1004,15712,201,1319,153
32991,-4624,988,15592,180,1296,127
33013,-4580,972,15680,187,1396,124
33032,-4732,992,15764,230,1352,134
33058,-4624,1008,15620,172,1317,120
33075,-4624,972,15620,195,1311,120
33100,-4600,952,15744,178,1373,138
33122,-4676,968,15760,203,1367,140
33143,-4684,984,15656,210,1307,136
33167,-4664,1000,15772,207,1340,148
33189,-4616,1024,15628,192,1375,123
33211,-4628,1048,15772,179,1319,122
33231,-4692,1008,15700,229,1328,103
33253,-4632,1008,15692,202,1342,132
33277,-4576,1016,15792,184,1383,154
33299,-4628,964,15636,205,1377,121
33320,-4700,988,15820,190,1295,138
33343,-4612,1004,15736,185,1340,162
33365,-4592,1008,15644,164,1363,156
33387,-4608,1036,15768,202,1344,106
33409,-4708,976,15752,161,1320,106
33430,-4660,980,15704,155,1377,125
33453,-4564,984,15728,178,1349,147
33474,-4660,960,15616,216,1362,119
33497,-4664,996,15656,185,1315,110
33519,-4592,976,15748,214,1380,136
33541,-4644,1012,15624,179,1355,162
33563,-4596,988,15700,213,1314,115
33582,-4620,1004,15696,181,1337,103
33608,-4564,1000,15744,186,1350,136
33629,-4608,952,15744,196,1348,95
33650,-4636,964,15772,210,1349,119
33672,-4644,976,15644,212,1322,109
33694,-4684,1040,15556,178,1329,116
33709,-4628,1068,15756,191,1372,135
33739,-4668,992,15660,205,1354,137
33759,-4724,984,15716,195,1314,129
33783,-4668,996,15636,196,1344,153
33805,-4628,972,15612,197,1334,121
33826,-4604,1016,15716,173,1325,132
33849,-4600,952,15680,160,1329,139
33871,-4724,1008,15672,205,1302,112
33893,-4608,928,15672,216,1318,111
33915,-4644,956,15684,180,1345,143
33937,-4660,960,15772,200,1323,124
33959,-4652,928,15752,227,1359,99
33980,-4668,964,15688,188,1419,122
34003,-4628,1012,15648,211,1297,138
34024,-4604,936,15596,202,1353,119
34047,-4632,1004,15608,202,1336,120
34068,-4656,1020,15708,209,1311,139
34091,-4628,996,15648,190,1363,151
34111,-4592,936,15688,203,1320,106
34134,-4592,940,15668,193,1340,120
34157,-4616,952,15776,183,1327,142
34180,-4652,1016,15592,178,1380,127
34198,-4620,988,15680,186,1362,110
34213,-4628,980,15620,197,1315,107
34245,-4672,992,15740,203,1338,122
34265,-4700,996,15672,214,1361,138
34280,-4624,1004,15616,216,1358,131
34308,-4620,976,15832,166,1299,132
34333,-4664,960,15612,200,1359,120
34355,-4588,1052,15680,189,1372,127
34376,-4616,984,15736,171,1368,125
34398,-4648,1016,15720,208,1338,142
34420,-4640,968,15756,183,1310,126
34442,-4596,948,15696,235,1367,115
34465,-4600,1052,15616,211,1335,111
34486,-4656,968,15804,191,1314,140
34509,-4656,1020,15752,197,1360,99
34530,-4620,944,15708,168,1327,112
34553,-4664,996,15696,171,1324,154
34574,-4612,976,15716,179,1311,143
34597,-4652,1016,15620,231,1346,135
34619,-4608,1012,15752,196,1356,121
34641,-4580,932,15552,180,1305,115
34661,-4684,1008,15732,226,1362,134
34684,-4704,960,15692,217,1358,122
34705,-4628,964,15692,182,1322,111
34729,-4660,976,15732,163,1344,156
34750,-4592,960,15608,171,1324,124
34773,-4572,972,15724,192,1329,146
34792,-4668,1024,15712,214,1347,109
34816,-4696,1012,15608,178,1339,142
34838,-4624,956,15572,202,1366,144
34860,-4624,988,15756,189,1323,102
34882,-4660,952,15688,229,1341,150
34905,-4552,980,15724,206,1330,117
34926,-4676,944,15672,167,1280,141
34949,-4600,1004,15632,193,1363,167
34970,-4672,940,15748,202,1306,131
34986,-4636,956,15740,201,1346,94
35015,-4608,988,15776,173,1325,128
35036,-4692,976,15704,208,1355,96
35059,-4660,1016,15704,197,1376,162
35080,-4704,1000,15740,210,1351,117
35102,-4600,928,15684,212,1355,128
35125,-4632,1020,15612,176,1321,125
35147,-4740,996,15632,175,1344,145
35169,-4568,980,15644,243,1357,132
35191,-4596,1000,15764,156,1348,143
35212,-4680,1016,15604,198,1332,138
35235,-4636,1012,15712,189,1329,125
35257,-4624,992,15732,169,1332,139
35275,-4628,952,15680,191,1326,119
35301,-4696,1004,15728,188,1346,113
35321,-4596,928,15580,171,1328,108
35345,-4584,1024,15684,209,1315,155
35366,-4576,1064,15724,151,1327,120
35389,-4568,984,15780,206,1338,142
35411,-4668,976,15680,192,1302,72
35432,-4640,980,15648,219,1340,109
35454,-4640,976,15712,182,1332,108
35476,-4612,1000,15720,214,1334,119
35499,-4600,1044,15704,187,1325,154
35521,-4600,968,15828,189,1348,156
35542,-4628,952,15716,191,1358,104
35565,-4676,956,15628,160,1339,108
35585,-4596,1020,15708,211,1291,119
35609,-4576,964,15564,215,1345,136
35625,-4624,996,15584,162,1386,83
35653,-4620,1028,15696,189,1365,124
35674,-4628,1024,15620,226,1337,152
35696,-4572,968,15704,193,1378,120
35719,-4632,992,15760,193,1375,125
35741,-4708,1000,15628,186,1317,148
35763,-4628,1032,15676,181,1332,112
35781,-4568,1012,15668,187,1332,119
35805,-4636,972,15720,196,1354,145
35826,-4644,972,15684,210,1338,134
35847,-4648,1016,15724,181,1334,139
35872,-4612,1004,15712,169,1358,127
35895,-4632,936,15636,186,1349,124
35915,-4696,988,15668,206,1335,105
35935,-4584,1020,15676,197,1345,120
35960,-4608,1016,15716,169,1344,138
35982,-4588,1000,15664,186,1335,130
36004,-4608,936,15724,180,1357,122
36026,-4520,1000,15716,183,1341,124
36048,-4652,980,15688,173,1348,121
36071,-4652,1032,15692,185,1310,125
36092,-4640,1020,15796,203,1317,108
36114,-4616,952,15728,189,1319,136
36136,-4648,1044,15684,182,1325,130
36158,-4640,940,15724,189,1334,143
36181,-4628,992,15696,199,1342,113
36203,-4608,1024,15724,180,1338,123
36225,-4688,1040,15724,231,1357,138
36247,-4628,1064,15740,180,1284,155
36269,-4644,1060,15664,185,1322,131
36292,-4796,1032,15944,209,1335,145
36313,-4568,1004,15744,209,1376,94
36334,-4640,1024,15684,185,1353,153
36353,-4640,1040,15684,192,1360,150
36378,-4548,1012,15604,201,1349,100
36397,-4656,984,15672,178,1310,121
36413,-4608,976,15660,185,1341,117
36445,-4624,1040,15732,203,1322,108
36466,-4748,1012,15620,162,1345,129
36489,-4596,976,15728,177,1381,98
36511,-4660,1000,15732,194,1316,135
36532,-4580,972,15756,205,1342,112
36554,-4608,948,15852,216,1291,150
36577,-4580,1024,15712,178,1341,125
36598,-4600,1016,15664,205,1390,131
36621,-4660,1012,15688,194,1348,163
36643,-4700,1028,15624,158,1329,138
36664,-4604,1004,15636,200,1357,141
36687,-4632,1008,15616,196,1368,170
36708,-4696,1012,15700,187,1374,128
36730,-4660,948,15752,184,1312,139
36753,-4632,1016,15792,205,1353,140
36771,-4660,1032,15676,192,1341,105
36797,-4648,936,15748,189,1346,120
36819,-4620,984,15740,179,1331,111
36841,-4580,976,15692,198,1336,122
36853,-4616,1000,15712,169,1328,125
36885,-4644,984,15732,184,1332,100
36906,-4596,1004,15608,164,1295,130
36925,-4672,1048,15688,202,1350,134
36951,-4608,1020,15848,165,1339,127
36973,-4652,980,15736,180,1330,126
36995,-4656,1028,15700,175,1312,120
37008,-4668,1004,15712,187,1310,126
37038,-4676,1000,15556,206,1360,111
37060,-4620,964,15668,217,1316,129
37083,-4648,1088,15636,205,1317,125
37104,-4704,1036,15684,217,1349,121
37127,-4684,1024,15728,201,1369,114
37149,-4692,1044,15732,181,1336,154
37171,-4612,1036,15796,184,1318,129
37192,-4676,1020,15688,167,1380,135
37216,-4684,1044,15744,180,1335,133
37236,-4652,1016,15708,201,1308,152
37259,-4652,976,15680,175,1347,136
37281,-4584,1000,15768,204,1345,111
37303,-4612,1044,15644,195,1314,106
37324,-4712,1016,15692,165,1320,86
37347,-4640,940,15744,169,1367,143
37369,-4688,976,15848,225,1352,138
37392,-4612,992,15644,214,1346,118
37410,-4584,984,15728,208,1361,116
37431,-4636,972,15664,166,1336,111
37457,-4612,1004,15640,175,1349,129
37479,-4644,1028,15684,219,1373,143
37500,-4696,1044,15776,162,1302,137
37521,-4612,948,15620,216,1337,162
37542,-4616,1020,15692,206,1348,106
37565,-4600,936,15548,227,1351,145
37587,-4644,1012,15700,187,1326,118
37609,-4664,964,15728,175,1344,162
37631,-4584,1020,15720,185,1367,127
37653,-4664,988,15780,193,1305,153
37677,-4628,984,15668,191,1348,90
37699,-4596,980,15644,212,1304,135
37720,-4608,1012,15712,175,1324,118
37743,-4656,976,15716,183,1368,127
37765,-4632,976,15764,195,1370,118
37786,-4668,940,15684,191,1297,114
37809,-4612,1028,15816,184,1318,132
37830,-4584,984,15804,177,1313,137
37852,-4716,1004,15736,209,1340,102
37874,-4548,984,15680,206,1369,129
37897,-4628,1044,15672,173,1372,119
37919,-4648,988,15732,212,1356,86
37941,-4696,1008,15704,196,1348,122
37963,-4684,952,15700,218,1322,135
37984,-4620,992,15748,239,1337,160
38003,-4636,940,15696,201,1296,117
38025,-4644,1000,15780,213,1326,135
38050,-4588,988,15720,221,1365,150
38073,-4732,996,15624,213,1310,140
38093,-4564,940,15764,181,1321,125
38114,-4672,996,15720,181,1351,134
38138,-4652,944,15684,207,1350,101
38160,-4664,956,15660,196,1328,115
38183,-4596,968,15664,199,1331,145
38204,-4612,960,15752,249,1340,127
38227,-4708,1024,15772,132,1333,114
38249,-4636,1012,15664,194,1339,108
38271,-4660,928,15736,222,1335,103
38292,-4652,1044,15616,179,1350,138
38315,-4704,1004,15632,220,1338,117
38337,-4636,1036,15768,161,1320,140
38359,-4552,1004,15668,194,1337,118
38380,-4652,940,15620,200,1326,142
38403,-4624,1008,15780,190,1307,151
38425,-4592,1012,15656,178,1366,109
38446,-4672,1028,15712,192,1360,142
38468,-4668,996,15704,211,1324,108
38490,-4596,1008,15656,176,1300,138
38508,-4600,1032,15712,174,1381,124
38535,-4612,904,15748,180,1312,84
38557,-4596,992,15640,222,1344,131
38578,-4608,980,15708,164,1294,151
38601,-4540,952,15760,177,1343,113
38614,-4596,1016,15676,225,1387,135
38645,-4660,1016,15772,188,1353,140
38666,-4584,984,15744,193,1376,96
38686,-4604,988,15752,186,1358,133
38702,-4684,1060,15720,207,1356,119
38732,-4624,972,15712,202,1341,113
38754,-4588,932,15720,189,1348,143
38776,-4616,1056,15672,205,1367,131
38798,-4592,908,15724,205,1333,106
38821,-4608,968,15644,173,1358,110
38843,-4580,1012,15664,171,1346,119
38864,-4656,1012,15648,194,1322,133
38887,-4604,916,15760,167,1333,123
38909,-4608,996,15724,198,1336,157
38930,-4604,976,15600,163,1375,95
38952,-4588,1048,15680,180,1340,111
38975,-4600,1012,15576,219,1350,122
38997,-4628,1004,15740,202,1341,90
39019,-4656,1052,15676,243,1331,129
39041,-4644,1032,15616,174,1329,121
39063,-4636,1008,15556,189,1315,135
39082,-4604,1032,15728,161,1322,131
39107,-4624,996,15680,175,1348,137
39129,-4672,972,15732,212,1348,135
39150,-4700,1048,15772,189,1307,141
39164,-4576,972,15652,195,1320,134
39195,-4676,1024,15720,221,1356,128
39217,-4680,940,15732,200,1323,126
39238,-4652,984,15760,232,1380,123
39260,-4588,956,15716,164,1328,132
39283,-4620,948,15740,176,1346,137
39305,-4608,1024,15640,177,1357,131
39327,-4612,1008,15652,174,1338,113
39349,-4636,980,15688,183,1316,146
39371,-4576,996,15704,133,1336,117
39391,-4568,988,15636,193,1377,164
39414,-4600,1028,15700,201,1332,168
39436,-4584,1012,15772,189,1343,116
39458,-4660,984,15644,171,1353,138
39482,-4628,984,15516,172,1348,121
39502,-4668,976,15696,197,1312,132
39524,-4596,952,15680,198,1332,144
39547,-4628,1040,15700,201,1309,125
39569,-4648,1012,15740,229,1364,118
39591,-4656,996,15676,185,1336,124
39613,-4600,980,15740,190,1361,101
39627,-4652,1028,15744,174,1313,119
39656,-4608,1012,15660,171,1373,109
39675,-4592,1024,15604,176,1320,123
39701,-4628,1028,15808,183,1333,127
39722,-4592,980,15720,171,1337,148
39744,-4624,1008,15664,190,1354,119
39765,-4596,996,15612,208,1343,136
39787,-4664,936,15724,198,1353,126
39810,-4676,1028,15724,228,1339,116
39825,-4580,980,15748,197,1336,128
39855,-4636,1040,15644,206,1348,121
39876,-4644,1028,15700,189,1307,111
39897,-4656,1012,15748,196,1320,88
39920,-4648,988,15720,227,1380,139
39943,-4568,956,15716,175,1332,155
39965,-4636,1000,15744,188,1341,122
39986,-4616,976,15716,169,1270,105
40008,-4704,1028,15616,199,1365,142
40030,-4592,996,15668,191,1340,156
40052,-4636,988,15676,186,1342,135
40075,-4572,1028,15632,167,1376,118
40096,-4612,988,15700,167,1367,119
40120,-4624,956,15728,190,1347,160
40141,-4644,968,15760,183,1360,111
40163,-4632,1008,15728,191,1334,143
40185,-4636,988,15684,193,1338,153
40206,-4616,1000,15768,173,1330,132
40228,-4664,964,15700,167,1301,145
40243,-4648,1044,15688,145,1346,121
40273,-4628,976,15712,179,1341,130
40293,-4716,996,15760,183,1355,139
40316,-4672,984,15760,204,1340,125
40338,-4648,980,15652,190,1351,130
40353,-4612,936,15740,205,1336,106
40382,-4592,984,15716,153,1324,112
40404,-4624,964,15676,161,1340,130
40425,-4676,972,15744,219,1328,122
40442,-4612,948,15720,212,1350,128
40471,-4628,1024,15700,191,1309,114
40492,-4628,980,15796,194,1311,121
40514,-4604,1024,15612,206,1354,124
40537,-4656,1044,15748,182,1345,123
40559,-4680,1036,15816,203,1331,152
40580,-4660,992,15720,245,1311,129
40602,-4576,1040,15664,169,1336,119
40624,-4640,932,15636,177,1372,127
40647,-4636,988,15684,152,1385,130
40668,-4640,940,15608,215,1336,124
40691,-4544,960,15700,171,1377,119
40713,-4628,1004,15696,175,1346,128
40733,-4672,1016,15712,213,1344,128
40757,-4656,940,15640,181,1365,117
40775,-4556,1016,15660,231,1331,132
40801,-4656,976,15672,196,1333,109
40820,-4644,988,15516,185,1350,116
40844,-4656,1024,15700,205,1348,126
40864,-4676,1072,15676,190,1328,127
40888,-4616,996,15732,192,1361,148
40909,-4572,992,15696,198,1319,112
40932,-4632,984,15720,203,1370,138
40954,-4640,996,15700,176,1343,107
40976,-4612,952,15688,168,1350,107
40999,-4700,988,15724,161,1380,106
41020,-4596,968,15728,166,1330,143
41043,-4620,1052,15684,180,1350,111
41064,-4560,968,15676,175,1350,125
41086,-4632,1012,15644,196,1342,144
41108,-4664,1012,15752,206,1312,123
41130,-4564,936,15644,192,1355,110
41152,-4680,1004,15748,187,1334,127
41175,-4644,996,15676,204,1357,126
41194,-4608,960,15616,213,1332,112
41216,-4632,1008,15768,171,1343,111
41240,-4644,996,15660,157,1366,170
41263,-4608,984,15712,158,1330,146
41283,-4668,952,15780,229,1336,133
41307,-4592,1000,15644,207,1345,121
41325,-4612,996,15688,226,1367,143
41348,-4596,956,15752,169,1343,155
41373,-4648,1036,15732,198,1329,129
41394,-4620,1016,15648,220,1337,125
41415,-4628,1028,15732,179,1329,133
41438,-4684,916,15768,182,1342,109
41461,-4652,968,15704,182,1326,134
41482,-4560,1012,15640,229,1345,110
41504,-4632,956,15636,186,1358,118
41526,-4600,1016,15576,194,1301,107
41549,-4652,1012,15700,195,1337,133
41570,-4616,1004,15728,172,1329,118
41592,-4672,1016,15704,172,1347,113
41614,-4592,984,15696,191,1326,116
41636,-4636,976,15760,183,1334,119
41659,-4648,1032,15780,190,1355,130
41681,-4632,1004,15744,200,1358,128
41703,-4628,968,15624,199,1343,144
41722,-4608,956,15652,197,1329,147
41747,-4652,920,15608,200,1347,110
41768,-4644,988,15724,210,1362,132
41788,-4644,968,15672,175,1352,147
41810,-4676,940,15772,212,1375,138
41832,-4628,1020,15696,200,1336,131
41854,-4680,1000,15764,211,1376,130
41876,-4640,964,15700,169,1310,111
41898,-4632,1044,15748,180,1356,141
41920,-4652,1044,15684,163,1362,109
41942,-4688,1064,15708,198,1310,135
41965,-4640,1040,15596,189,1343,128
41980,-4588,1000,15736,216,1343,129
42011,-4660,1012,15632,211,1340,145
42032,-4656,1008,15664,180,1337,130
42055,-4616,992,15696,170,1372,124
42076,-4620,976,15840,159,1333,111
42098,-4644,1008,15644,181,1327,107
42121,-4644,1004,15736,156,1360,102
42143,-4608,1072,15772,205,1333,125
42165,-4604,976,15624,186,1355,89
42186,-4620,1004,15736,184,1354,113
42209,-4588,992,15744,200,1339,114
42230,-4604,1008,15644,204,1329,121
42252,-4712,1020,15720,154,1338,137
42274,-4584,940,15652,209,1370,117
42296,-4724,1036,15708,218,1329,108
42314,-4636,928,15692,171,1276,113
42341,-4556,1008,15744,224,1381,122
42358,-4572,992,15660,194,1327,108
42375,-4656,944,15708,198,1324,113
42407,-4688,980,15692,219,1337,131
42429,-4688,944,15732,177,1313,128
42450,-4672,992,15852,211,1356,111
42473,-4620,1016,15696,214,1332,161
42486,-4616,988,15700,181,1344,115
42516,-4620,944,15676,183,1374,124
42538,-4600,980,15660,215,1384,167
42560,-4624,1012,15780,181,1332,103
42582,-4568,1028,15688,173,1348,112
42604,-4616,996,15724,187,1326,105
42626,-4644,1024,15708,191,1350,125
42648,-4672,960,15716,193,1296,122
42670,-4636,980,15700,211,1337,138
42693,-4616,1024,15712,177,1364,127
42715,-4568,976,15660,194,1348,135
42736,-4672,1008,15760,194,1353,139
42759,-4640,988,15728,162,1325,163
42777,-4564,984,15612,206,1296,126
42803,-4604,976,15768,221,1324,122
42825,-4620,1008,15656,174,1328,134
42847,-4604,1028,15660,192,1350,132
42869,-4652,1020,15668,205,1353,159
42891,-4632,996,15752,171,1332,120
42912,-4612,1016,15752,183,1323,129
42935,-4568,1024,15548,194,1346,122
42952,-4664,912,15728,225,1303,124
42979,-4684,1020,15644,170,1337,128
43000,-4600,996,15696,187,1312,114
43023,-4564,1008,15764,187,1361,155
43044,-4632,1016,15664,205,1348,152
43064,-4644,1016,15704,186,1357,133
43088,-4712,1012,15684,179,1390,124
43111,-4696,988,15732,177,1315,112
43132,-4688,964,15724,187,1335,137
43154,-4676,984,15640,199,1311,114
43176,-4676,1012,15632,191,1356,112
43198,-4608,1024,15708,187,1338,131
43221,-4616,952,15736,151,1294,106
43242,-4624,1048,15752,198,1353,138
43265,-4612,988,15748,196,1350,106
43287,-4676,1020,15644,163,1355,138
43308,-4640,1000,15620,178,1383,125
43330,-4588,940,15716,203,1366,109
43352,-4656,1008,15792,193,1342,148
43374,-4632,964,15720,220,1352,107
43397,-4572,1020,15816,174,1311,114
43418,-4612,956,15664,203,1321,149
43440,-4640,988,15680,210,1364,130
43462,-4672,1044,15696,178,1356,153
43481,-4632,972,15800,192,1331,112
43504,-4676,1004,15732,181,1350,130
43526,-4616,1036,15680,184,1363,129
43549,-4676,1028,15692,176,1306,139
43570,-4580,1072,15660,209,1317,140
43592,-4580,1028,15680,202,1378,137
43617,-4660,968,15652,203,1365,126
43639,-4616,964,15676,176,1376,138
43660,-4636,984,15732,202,1318,141
43682,-4632,984,15728,177,1340,127
43704,-4656,940,15804,220,1374,123
43726,-4688,992,15744,200,1321,111
43749,-4612,1000,15604,201,1342,146
43770,-4680,956,15728,209,1376,114
43792,-4616,1008,15632,202,1357,110
43814,-4640,1052,15724,204,1342,142
43836,-4656,1020,15732,191,1361,152
43858,-4612,992,15672,141,1330,129
43880,-4612,944,15688,180,1318,139
43902,-4612,944,15672,178,1325,152
43925,-4564,1020,15700,167,1320,139
43946,-4604,984,15680,204,1336,134
43969,-4680,976,15776,166,1332,104
43990,-4676,1044,15736,182,1336,131
44008,-4632,980,15664,205,1352,118
44035,-4676,980,15836,173,1345,124
44056,-4592,948,15704,187,1355,101
44079,-4656,964,15672,228,1347,143
44091,-4596,1068,15680,180,1382,128
44121,-4576,1004,15624,183,1323,125
44145,-4680,1036,15740,185,1322,122
44166,-4728,988,15652,163,1338,133
44187,-4596,1016,15652,157,1334,151
44210,-4692,996,15692,206,1355,126
44233,-4624,1000,15640,174,1376,137
44254,-4604,980,15712,170,1338,116
44277,-4632,1004,15720,193,1308,124
44298,-4644,1008,15648,215,1362,115
44319,-4636,1020,15748,187,1311,143
44342,-4624,1096,15704,191,1310,142
44364,-4572,952,15728,178,1368,123
44386,-4664,1028,15704,192,1341,152
44408,-4584,968,15672,176,1337,121
44430,-4604,1000,15664,183,1343,137
44453,-4652,1060,15768,205,1350,154
44475,-4612,1004,15732,225,1327,141
44491,-4580,1024,15668,174,1366,123
44519,-4648,944,15776,212,1343,174
44540,-4576,1000,15680,173,1351,143
44558,-4704,928,15680,161,1334,91
44584,-4612,1064,15728,199,1360,148
44606,-4536,1016,15556,188,1330,131
44626,-4608,1044,15776,195,1322,126
44650,-4564,1016,15736,188,1346,145
44672,-4640,1020,15672,230,1340,127
44694,-4624,1048,15672,168,1313,151
44715,-4616,988,15748,162,1349,119
44738,-4624,988,15660,195,1358,100
44760,-4672,960,15788,201,1361,137
44782,-4596,992,15580,173,1342,110
44804,-4640,1000,15672,192,1345,125
44825,-4636,1000,15800,179,1358,153
44849,-4620,904,15756,169,1354,131
44864,-4712,1056,15740,195,1323,123
44893,-4668,988,15648,182,1330,149
44914,-4660,980,15668,180,1326,134
44937,-4596,1040,15824,208,1351,111
44958,-4644,972,15744,193,1365,141
44980,-4556,972,15708,200,1313,140
45002,-4660,1016,15700,208,1336,112
45024,-4640,992,15660,172,1381,116
45046,-4632,1016,15744,218,1308,114
45068,-4648,1020,15784,166,1338,163
45091,-4632,996,15696,185,1357,126
45112,-4580,988,15656,230,1358,123
45134,-4668,1000,15720,215,1330,118
45155,-4604,944,15484,218,1342,149
45175,-4616,968,15544,202,1313,146
45198,-4640,1008,15676,178,1377,124
45222,-4636,972,15704,176,1305,138
45245,-4624,984,15664,217,1308,112
45265,-4640,1040,15712,175,1341,133
45288,-4704,980,15724,198,1346,147
45310,-4668,1012,15776,217,1324,156
45325,-4680,1020,15776,213,1338,114
45354,-4628,972,15700,189,1374,119
45376,-4692,1020,15800,176,1360,162
45398,-4676,936,15668,210,1319,132
45420,-4692,1008,15760,184,1333,157
45443,-4644,912,15620,186,1318,114
45464,-4672,988,15692,205,1339,122
45487,-4624,1052,15656,204,1309,162
45509,-4628,1072,15760,179,1359,131
45531,-4596,928,15708,173,1394,93
45552,-4696,1020,15648,221,1310,130
45575,-4616,988,15684,188,1318,159
45596,-4644,1024,15656,204,1335,117
45619,-4660,1056,15704,212,1332,167
45640,-4652,1016,15700,185,1340,132
45663,-4576,1004,15720,155,1331,96
45684,-4584,996,15760,167,1353,108
45703,-4668,988,15668,191,1372,127
45725,-4624,980,15744,184,1350,132
45750,-4648,980,15640,190,1342,121
45765,-4644,972,15672,187,1335,100
45795,-4620,992,15652,191,1349,116
45817,-4612,1000,15608,170,1357,99
45839,-4604,1000,15780,203,1317,132
45860,-4644,1032,15724,204,1343,113
45874,-4592,1004,15760,170,1331,142
45904,-4684,1028,15660,221,1338,125
45926,-4584,1008,15756,195,1366,124
45948,-4592,1000,15660,215,1324,144
45965,-4628,1020,15660,195,1337,142
45993,-4652,952,15792,212,1341,141
46014,-4644,952,15612,190,1317,105
46037,-4612,980,15672,237,1368,139
46059,-4692,988,15684,186,1330,159
46080,-4612,1020,15636,198,1386,100
46103,-4596,944,15756,204,1373,124
46125,-4620,948,15612,188,1354,147
46146,-4624,1068,15716,207,1353,104
46169,-4620,1024,15764,186,1328,122
46190,-4660,992,15628,179,1371,125
46212,-4656,1008,15720,226,1332,122
46234,-4692,1036,15600,194,1307,119
46256,-4596,964,15568,178,1352,127
46278,-4604,976,15700,151,1366,134
46301,-4628,1008,15852,118,1342,110
46321,-4656,956,15696,211,1301,120
46342,-4604,1016,15720,236,1327,136
46366,-4588,960,15684,217,1323,134
46389,-4596,996,15736,200,1338,76
46410,-4652,992,15752,185,1323,136
46425,-4648,1028,15704,200,1317,126
46454,-4708,980,15672,209,1358,117
46476,-4660,980,15788,197,1358,131
46498,-4740,1008,15656,173,1357,137
46520,-4596,988,15696,205,1365,140
46542,-4548,1020,15716,197,1333,126
46564,-4680,1012,15684,182,1345,93
46586,-4644,1028,15680,182,1313,149
46607,-4632,996,15736,193,1351,115
46630,-4600,984,15768,176,1367,119
46652,-4728,1020,15716,188,1332,99
46675,-4600,1008,15696,178,1325,139
46697,-4612,940,15652,188,1363,145
46720,-4644,972,15572,181,1318,108
46740,-4648,980,15612,182,1333,124
46762,-4596,944,15644,180,1338,131
46784,-4572,1060,15708,192,1326,114
46807,-4612,1012,15756,185,1351,112
46829,-4672,1020,15800,181,1353,160
46850,-4628,976,15728,182,1364,141
46871,-4724,972,15636,233,1387,110
46894,-4696,1048,15772,192,1345,101
46917,-4640,976,15680,171,1330,150
46938,-4596,1004,15716,193,1354,127
46958,-4616,996,15772,173,1323,128
46983,-4640,964,15736,182,1342,101
47005,-4604,968,15756,203,1354,113
47027,-4652,1020,15644,210,1348,105
47049,-4652,1032,15664,201,1354,118
47070,-4624,924,15812,190,1326,108
47086,-4568,1028,15728,218,1330,129
47115,-4596,972,15776,187,1341,132
47137,-4624,1008,15696,159,1311,138
47159,-4640,992,15728,209,1322,136
47180,-4572,980,15752,214,1339,139
47202,-4600,940,15692,200,1352,147
47224,-4616,1012,15780,197,1349,128
47247,-4604,1064,15660,216,1334,123
47269,-4660,1024,15676,176,1352,137
47291,-4616,1020,15640,180,1297,129
47312,-4628,1020,15720,188,1323,140
47333,-4668,1008,15644,193,1317,125
47355,-4572,916,15628,186,1352,151
47369,-4624,992,15672,203,1346,138
47400,-4648,1028,15688,193,1338,144
47423,-4668,984,15652,215,1337,132
47444,-4700,996,15708,169,1347,136
47466,-4576,1028,15692,154,1338,107
47489,-4608,1028,15680,177,1368,113
47509,-4696,1020,15676,179,1305,133
47531,-4660,1004,15744,200,1339,106
47554,-4628,944,15732,193,1298,136
47576,-4628,1044,15652,206,1361,122
47598,-4620,1036,15588,201,1342,142
47620,-4580,1004,15776,212,1322,138
47643,-4568,1024,15676,182,1332,104
47664,-4672,984,15692,145,1325,119
47686,-4616,972,15724,204,1359,90
47708,-4672,992,15744,186,1354,127
47730,-4684,992,15600,174,1347,105
47753,-4636,1020,15704,191,1320,119
47774,-4620,1100,15644,186,1344,119
47797,-4664,1000,15648,200,1342,156
47819,-4608,976,15692,177,1329,157
47836,-4736,932,15664,182,1362,147
47862,-4628,956,15620,226,1317,129
47885,-4652,1052,15532,171,1295,124
47903,-4560,936,15704,176,1314,119
47925,-4620,1028,15760,213,1334,121
47950,-4664,1052,15656,196,1330,151
47973,-4692,1016,15624,177,1336,123
47995,-4648,972,15740,229,1353,139
48016,-4596,992,15664,199,1356,124
48038,-4628,1044,15680,210,1335,136
48061,-4660,960,15688,189,1362,156
48083,-4620,1036,15660,169,1341,130
48103,-4660,1020,15736,167,1298,108
48125,-4664,1012,15636,172,1307,139
48141,-4624,952,15596,182,1340,142
48171,-4648,968,15668,166,1290,106
48192,-4660,980,15740,231,1321,109
48215,-4692,952,15640,176,1347,151
48236,-4668,964,15660,204,1328,112
48258,-4604,1044,15672,187,1305,147
48280,-4592,972,15724,183,1357,137
48303,-4696,1020,15768,207,1342,110
48324,-4672,1052,15768,188,1334,135
48347,-4568,1016,15676,204,1348,110
48368,-4656,1004,15848,215,1361,113
48389,-4612,1028,15816,195,1337,152
48412,-4636,992,15656,200,1343,99
48435,-4544,972,15688,190,1336,121
48456,-4628,936,15648,219,1356,111
48479,-4672,988,15588,229,1357,134
48498,-4556,1040,15712,196,1337,138
48522,-4616,924,15692,227,1316,109
48544,-4680,1056,15780,226,1344,135
48567,-4648,1040,15788,201,1355,116
48589,-4600,940,15688,196,1323,112
48610,-4632,1004,15756,203,1345,121
48632,-4636,952,15668,177,1353,113
48654,-4628,964,15684,220,1357,144
48676,-4572,1040,15804,200,1344,145
48698,-4644,1020,15744,216,1367,137
48721,-4624,972,15660,208,1299,132
48743,-4620,992,15780,192,1334,145
48764,-4584,988,15604,157,1331,136
48786,-4672,1004,15748,206,1319,145
48808,-4660,1032,15712,202,1365,139
48825,-4568,936,15636,215,1355,115
48852,-4648,980,15668,205,1347,129
48874,-4616,1028,15700,169,1338,140
48897,-4628,988,15720,211,1352,141
48919,-4644,1052,15708,164,1311,130
48940,-4612,960,15684,190,1370,121
48954,-4624,1044,15708,191,1316,115
48985,-4588,984,15680,171,1329,127
49006,-4636,964,15744,181,1313,118
49024,-4636,1052,15696,166,1358,109
49051,-4640,1052,15656,184,1330,121
49070,-4696,928,15684,163,1345,149
49085,-4580,1024,15740,193,1310,122
49116,-4648,1024,15644,189,1354,121
49138,-4604,960,15680,172,1325,155
49160,-4708,1040,15780,190,1335,151
49175,-4588,944,15708,209,1363,128
49204,-4600,1032,15712,182,1324,135
49227,-4612,1016,15736,176,1306,139
49249,-4528,1024,15724,188,1343,115
49270,-4628,1016,15692,169,1327,122
49292,-4616,1016,15740,173,1316,129
49315,-4696,948,15656,226,1357,141
49336,-4608,996,15724,197,1319,118
49358,-4588,956,15764,187,1305,101
49375,-4628,940,15616,186,1324,110
49403,-4640,1048,15700,218,1324,157
49425,-4628,968,15720,186,1338,121
49446,-4668,1016,15640,195,1325,110
49469,-4580,992,15704,216,1358,130
49488,-4668,1032,15736,198,1301,118
49508,-4644,1020,15740,188,1362,116
49534,-4612,1004,15788,187,1325,125
49557,-4652,1068,15612,192,1374,122
49578,-4632,992,15668,185,1321,153
49600,-4688,1004,15712,171,1382,140
49622,-4656,984,15628,198,1342,95
49645,-4700,1048,15680,226,1296,167
49665,-4556,1072,15752,214,1323,122
49680,-4656,1008,15688,199,1338,114
49711,-4740,1024,15720,198,1333,105
49732,-4612,940,15664,235,1357,114
49746,-4672,992,15688,163,1335,129
49776,-4620,976,15728,220,1339,127
49798,-4652,1012,15632,164,1361,128
49821,-4676,960,15780,176,1342,136
49842,-4652,984,15756,185,1363,101
49865,-4656,992,15760,195,1320,112
49886,-4600,952,15728,253,1362,151
49908,-4632,1036,15688,207,1371,135
49930,-4664,936,15704,212,1350,135
49952,-4652,984,15748,178,1363,106
49975,-4616,976,15748,196,1346,116
49996,-4672,1016,15740,199,1371,108
50019,-4692,1028,15704,202,1344,150
50037,-4616,960,15680,212,1336,130
50062,-4616,1012,15704,177,1317,156
50085,-4668,1044,15640,183,1333,119
50105,-4640,1008,15680,183,1326,106
50119,-4624,980,15776,210,1320,112
50150,-4580,1016,15768,153,1305,143
50170,-4588,956,15700,189,1356,127
50192,-4592,968,15784,195,1275,136
50216,-4668,984,15532,205,1363,113
50237,-4640,964,15644,197,1329,118
50259,-4624,980,15588,185,1321,155
50281,-4640,1016,15700,174,1331,161
50304,-4652,980,15648,170,1337,139
50325,-4728,1032,15720,181,1322,125
50348,-4608,988,15648,173,1366,116
50370,-4640,1000,15768,186,1361,124
50392,-4664,1020,15652,173,1326,148
50414,-4628,968,15656,199,1328,138
50436,-4604,948,15700,214,1361,123
50458,-4612,972,15776,174,1333,122
50481,-4584,944,15760,186,1332,131
50502,-4676,916,15736,198,1332,114
50524,-4636,976,15688,193,1351,140
50547,-4632,1008,15680,206,1345,123
50566,-4636,972,15788,186,1330,140
50582,-4628,968,15724,206,1342,134
50612,-4536,956,15780,176,1354,113
50631,-4636,972,15840,176,1357,106
50654,-4716,988,15684,184,1316,143
50677,-4572,940,15764,184,1342,141
50699,-4668,992,15700,209,1356,97
50722,-4660,980,15688,199,1344,75
50743,-4624,1052,15800,190,1305,152
50766,-4592,968,15620,205,1318,153
50788,-4608,976,15672,169,1355,154
50810,-4644,988,15728,179,1316,110
50825,-4676,980,15756,192,1355,140
50854,-4636,964,15704,187,1361,113
50876,-4628,1012,15704,206,1354,130
50898,-4640,1044,15668,213,1356,141
50920,-4612,988,15712,196,1351,123
50942,-4652,992,15764,206,1368,154
50964,-4632,1068,15656,182,1355,117
50986,-4676,1008,15720,248,1332,123
51008,-4688,1028,15604,179,1296,108
51030,-4596,976,15672,194,1302,115
51052,-4632,1012,15708,202,1350,142
51074,-4660,1008,15756,211,1336,123
51097,-4640,928,15644,176,1354,129
51118,-4608,980,15736,186,1321,136
51135,-4628,1016,15632,212,1390,135
51163,-4592,972,15732,220,1332,140
51184,-4652,972,15704,200,1354,129
51204,-4564,952,15632,185,1336,109
51227,-4648,1000,15808,184,1344,157
51247,-4636,1084,15720,155,1333,127
51272,-4636,1036,15628,170,1377,135
51294,-4588,1000,15616,226,1343,125
51316,-4608,948,15668,198,1331,109
51338,-4648,1024,15768,187,1333,128
51361,-4664,1044,15704,178,1319,116
51381,-4656,1004,15728,185,1334,125
51397,-4684,1084,15716,180,1326,120
51426,-4568,980,15720,210,1344,146
51448,-4656,944,15776,211,1369,97
51470,-4628,996,15744,222,1328,133
51492,-4688,1012,15708,194,1331,120
51514,-4556,1004,15732,174,1346,130
51536,-4612,1016,15704,194,1351,109
51558,-4712,944,15724,195,1361,142
51580,-4616,1020,15744,202,1338,131
51603,-4664,1020,15784,222,1340,134
51624,-4576,996,15648,148,1342,140
51647,-4620,920,15652,160,1248,108
51668,-4576,1036,15708,170,1327,143
51687,-4636,1020,15644,184,1342,159
51710,-4660,996,15700,214,1289,153
51731,-4604,1036,15660,208,1335,98
51756,-4564,964,15576,164,1381,119
51775,-4636,1060,15712,187,1365,142
51799,-4656,988,15632,199,1303,131
51820,-4604,1008,15600,213,1337,137
51843,-4628,1016,15692,198,1360,110
51865,-4596,968,15712,170,1347,124
51886,-4692,944,15688,206,1351,138
51909,-4636,996,15708,228,1353,137
51932,-4536,964,15740,190,1335,124
51953,-4616,968,15700,184,1331,118
51976,-4708,1020,15816,182,1334,134
51998,-4560,972,15592,192,1344,115
52020,-4592,976,15776,192,1324,105
52043,-4628,1044,15752,215,1342,98
52064,-4660,964,15752,191,1362,122
52086,-4652,1076,15672,229,1327,134
52108,-4628,1024,15700,202,1361,114
52130,-4568,1004,15708,211,1349,115
52152,-4720,1012,15680,182,1306,128
52175,-4632,992,15640,162,1330,103
52197,-4572,1020,15724,210,1349,156
52219,-4628,984,15796,189,1341,149
52239,-4608,980,15776,185,1362,127
52260,-4664,1016,15740,190,1361,142
52282,-4580,964,15760,180,1351,122
52306,-4584,988,15680,197,1361,132
52329,-4640,1016,15724,176,1324,101
52350,-4584,1028,15736,189,1325,136
52363,-4628,960,15772,237,1292,121
52395,-4608,1000,15788,196,1339,113
52416,-4652,984,15628,208,1341,135
52436,-4612,984,15652,168,1296,117
52461,-4632,972,15672,171,1371,132
52481,-4540,1016,15684,189,1369,128
52504,-4700,980,15576,202,1310,142
52527,-4656,924,15832,187,1320,151
52549,-4664,928,15620,180,1333,124
52570,-4588,996,15616,189,1324,140
52592,-4716,1020,15724,199,1332,120
52615,-4612,992,15620,199,1370,135
52636,-4632,1028,15856,197,1372,125
52658,-4652,984,15652,187,1341,121
52680,-4604,1024,15680,186,1326,134
52697,-4584,1056,15668,225,1359,111
52724,-4596,1008,15608,181,1374,149
52747,-4636,944,15780,193,1328,140
52768,-4636,1044,15640,194,1346,118
52788,-4632,928,15604,181,1350,132
52809,-4704,988,15720,194,1342,133
52835,-4676,944,15760,190,1336,142
52854,-4604,1008,15640,223,1385,108
52876,-4660,1000,15840,213,1355,132
52892,-4708,996,15724,148,1317,122
52922,-4624,976,15560,171,1332,125
52942,-4628,1028,15740,181,1357,119
52965,-4620,1000,15704,189,1338,130
52988,-4568,944,15700,213,1359,126
53010,-4680,1028,15768,195,1328,130
53025,-4648,972,15716,169,1352,137
53054,-4676,1012,15652,189,1348,163
53075,-4608,1032,15752,178,1375,152
53099,-4564,976,15720,182,1358,150
53120,-4632,972,15688,226,1322,118
53142,-4632,964,15592,163,1327,147
53165,-4668,980,15656,215,1370,142
53186,-4704,1032,15744,189,1344,126
53208,-4712,1004,15696,213,1346,150
53230,-4628,988,15720,173,1323,113
53252,-4616,1024,15668,204,1341,143
53274,-4624,944,15564,220,1345,127
53296,-4604,1028,15740,189,1348,145
53319,-4584,1056,15720,166,1313,123
53340,-4588,936,15604,239,1336,140
53363,-4644,960,15704,154,1335,113
53385,-4704,992,15676,184,1328,112
53406,-4600,1024,15768,168,1342,135
53427,-4700,984,15708,170,1312,134
53448,-4684,984,15664,199,1320,129
53473,-4660,1012,15720,157,1353,126
53495,-4640,992,15736,198,1347,108
53517,-4640,980,15704,184,1342,143
53533,-4596,964,15672,168,1312,111
53560,-4612,1000,15620,203,1354,113
53582,-4616,1000,15684,159,1346,129
53604,-4684,1000,15624,153,1349,93
53627,-4564,972,15656,202,1350,127
53648,-4604,996,15676,189,1340,125
53667,-4608,984,15652,202,1361,131
53693,-4624,1032,15748,206,1360,135
53714,-4668,976,15704,185,1355,143
53736,-4616,940,15788,165,1362,114
53758,-4656,1024,15692,194,1328,167
53775,-4676,1028,15612,209,1323,143
53803,-4664,1012,15672,219,1321,140
53825,-4692,980,15700,183,1382,113
53847,-4604,1044,15780,207,1325,126
53868,-4632,996,15760,195,1296,130
53890,-4668,988,15716,161,1316,121
53909,-4580,996,15708,175,1340,140
53932,-4652,992,15732,192,1302,138
53954,-4608,980,15624,191,1346,132
53976,-4612,952,15608,208,1354,136
53991,-4584,976,15812,168,1353,123
54022,-4612,1004,15652,207,1349,122
54041,-4656,964,15668,201,1325,128
54066,-4620,996,15644,170,1359,164
54088,-4628,956,15584,205,1333,132
54109,-4624,992,15720,180,1327,124
54132,-4596,1028,15724,190,1367,143
54154,-4664,952,15788,215,1347,134
54176,-4656,1012,15680,192,1299,142
54192,-4644,1012,15676,207,1352,108
54220,-4608,964,15656,186,1307,121
54242,-4672,964,15612,186,1344,115
54264,-4660,996,15668,171,1295,136
54286,-4608,1052,15756,200,1314,112
54309,-4652,1028,15728,183,1366,106
54331,-4656,964,15712,187,1332,150
54352,-4640,1060,15768,191,1323,111
54375,-4668,976,15708,176,1321,143
54397,-4640,996,15716,179,1369,140
54419,-4616,976,15824,198,1319,121
54439,-4628,952,15624,172,1320,124
54461,-4576,1108,15712,213,1346,127
54485,-4648,1032,15744,198,1346,142
54506,-4608,1008,15648,187,1358,122
54528,-4664,980,15696,181,1350,116
54550,-4724,988,15824,179,1308,117
54572,-4644,1004,15660,202,1301,134
54593,-4624,1044,15724,185,1327,137
54616,-4612,1028,15716,191,1329,128
54638,-4632,932,15640,201,1375,101
54660,-4580,960,15852,193,1324,106
54675,-4656,1016,15576,186,1371,165
54704,-4620,988,15736,211,1351,122
54726,-4596,956,15684,186,1367,125
54748,-4584,1000,15544,188,1317,112
54764,-4632,1020,15772,185,1324,138
54792,-4720,1000,15748,174,1308,120
54815,-4628,996,15628,184,1305,127
54836,-4580,980,15616,191,1320,145
54858,-4656,1028,15724,174,1335,131
54880,-4628,1020,15680,228,1318,129
54902,-4696,984,15652,158,1329,111
54925,-4592,1008,15664,242,1342,131
54947,-4684,996,15624,204,1331,124
54969,-4640,1072,15760,187,1315,114
54991,-4632,1040,15672,203,1342,131
55013,-4632,976,15792,182,1344,120
55034,-4680,1000,15680,208,1331,131
55054,-4632,972,15712,194,1341,118
55077,-4612,1064,15696,186,1351,124
55099,-4660,968,15764,166,1310,122
55122,-4608,936,15708,168,1302,128
55143,-4700,1052,15784,208,1297,95
55164,-4604,1000,15756,166,1349,140
55188,-4560,980,15640,197,1349,102
55209,-4652,992,15700,166,1299,111
55233,-4632,984,15700,178,1357,122
55254,-4608,984,15772,200,1342,160
55277,-4600,992,15740,186,1338,136
55298,-4660,976,15640,200,1340,134
55320,-4672,1004,15716,191,1334,106
55343,-4632,996,15552,191,1326,123
55365,-4584,972,15600,182,1385,149
55385,-4632,1056,15696,219,1324,121
55408,-4604,1056,15748,178,1326,148
55430,-4660,1044,15752,172,1337,109
55452,-4664,984,15756,204,1346,83
55474,-4664,964,15696,153,1308,157
55497,-4648,960,15764,202,1338,111
55509,-4644,976,15660,197,1359,124
55540,-4592,956,15684,159,1390,135
55559,-4720,1060,15744,173,1302,130
55576,-4648,1052,15656,156,1356,144
55607,-4548,1024,15596,183,1357,113
55627,-4660,1044,15824,179,1352,120
55650,-4668,1028,15740,227,1352,125
55672,-4664,940,15672,192,1321,127
55694,-4644,1000,15688,179,1329,97
55716,-4644,1020,15736,232,1357,125
55738,-4644,972,15636,184,1332,137
55760,-4636,952,15644,217,1340,134
55782,-4656,972,15644,215,1360,128
55804,-4664,996,15732,168,1313,133
55826,-4680,1052,15720,187,1321,127
55849,-4608,976,15604,179,1345,123
55869,-4608,1028,15604,213,1368,139
55892,-4656,992,15692,180,1351,128
55914,-4676,1000,15660,179,1361,127
55937,-4588,1004,15692,211,1305,147
55958,-4636,996,15580,219,1337,119
55980,-4656,996,15656,143,1337,121
56002,-4688,940,15672,187,1348,132
56024,-4688,960,15688,147,1332,149
56047,-4668,952,15708,208,1318,109
56068,-4632,1056,15680,208,1362,117
56090,-4636,1008,15720,202,1340,123
56109,-4608,992,15684,192,1365,120
56132,-4644,972,15812,194,1334,124
56154,-4680,960,15664,150,1355,131
56176,-4644,988,15672,199,1337,122
56201,-4608,1020,15736,196,1328,147
56222,-4612,972,15656,162,1380,88
56244,-4652,1016,15716,177,1352,120
56266,-4632,948,15608,218,1332,94
56288,-4616,992,15740,197,1350,109
56309,-4644,1028,15708,205,1334,132
56332,-4580,972,15628,199,1353,132
56354,-4676,1024,15696,200,1341,122
56376,-4604,1000,15824,201,1355,120
56398,-4592,996,15676,178,1330,132
56421,-4604,984,15624,200,1298,109
56442,-4648,1060,15776,191,1349,110
56464,-4648,968,15624,172,1363,153
56486,-4672,956,15864,203,1366,111
56503,-4668,1020,15624,160,1334,142
56531,-4668,976,15724,175,1336,95
56553,-4680,980,15600,177,1359,128
56575,-4696,984,15640,195,1340,116
56597,-4624,968,15604,200,1327,167
56614,-4676,940,15804,229,1338,115
56636,-4676,960,15616,200,1316,91
56662,-4672,1056,15764,189,1329,119
56685,-4672,1020,15748,156,1345,112
56705,-4628,1000,15720,180,1337,136
56719,-4648,980,15704,157,1310,142
56750,-4584,1056,15748,191,1325,123
56772,-4628,968,15700,197,1299,122
56793,-4680,992,15772,172,1348,132
56817,-4680,1004,15712,176,1333,135
56839,-4568,972,15640,157,1350,138
56859,-4608,984,15760,209,1362,159
56882,-4620,984,15580,184,1342,130
56904,-4580,976,15688,176,1336,140
56925,-4656,1084,15676,202,1323,127
56948,-4644,960,15572,201,1353,140
56970,-4660,1024,15772,164,1310,137
56992,-4648,1012,15700,217,1325,138
57015,-4660,996,15620,165,1306,116
57036,-4676,1020,15720,195,1345,157
57058,-4608,1008,15696,164,1315,151
57080,-4640,960,15668,199,1345,144
57102,-4656,1016,15824,199,1340,119
57125,-4728,956,15588,182,1362,118
57146,-4624,1036,15720,211,1332,126
57168,-4624,1008,15744,183,1341,137
57190,-4568,924,15644,193,1322,150
57212,-4640,980,15680,171,1339,132
57233,-4648,1064,15688,230,1339,136
57254,-4624,956,15764,193,1322,123
57278,-4616,1020,15788,197,1316,126
57300,-4584,1028,15744,166,1365,122
57320,-4684,988,15740,217,1327,121
57344,-4664,1012,15800,198,1357,97
57367,-4616,968,15736,165,1379,126
57386,-4624,1032,15656,193,1385,116
57410,-4620,976,15744,223,1314,112
57432,-4596,980,15684,209,1341,137
57454,-4620,940,15744,209,1367,111
57476,-4600,996,15748,208,1339,100
57498,-4616,988,15708,194,1332,141
57520,-4536,1032,15732,186,1356,120
57542,-4636,956,15724,168,1355,152
57564,-4632,948,15612,197,1332,125
57586,-4600,956,15752,213,1376,144
57604,-4628,992,15788,194,1333,112
57630,-4604,960,15652,176,1344,114
57652,-4684,996,15676,213,1318,130
57675,-4612,1004,15764,169,1326,124
57697,-4628,956,15808,180,1335,108
57716,-4660,1056,15772,224,1335,119
57740,-4628,980,15660,208,1337,123
57753,-4632,960,15704,188,1347,119
57785,-4628,1056,15700,180,1347,160
57805,-4608,936,15688,212,1328,144
57829,-4588,1028,15784,166,1380,148
57847,-4592,972,15696,197,1331,118
57873,-4640,956,15660,209,1323,123
57894,-4612,1036,15692,181,1333,98
57914,-4656,928,15656,196,1351,121
57938,-4584,996,15756,240,1360,140
57959,-4608,944,15572,179,1343,136
57981,-4588,964,15684,169,1348,152
58004,-4592,992,15696,197,1301,108
58026,-4600,976,15644,205,1331,115
58048,-4636,976,15676,189,1341,125
58070,-4572,1032,15772,229,1327,131
58092,-4684,1000,15744,199,1332,115
58114,-4720,984,15692,174,1348,138
58136,-4636,1028,15684,217,1293,125
58157,-4668,976,15772,169,1369,138
58181,-4680,1052,15636,218,1324,136
58202,-4564,1040,15652,214,1358,110
58224,-4548,1008,15696,167,1343,102
58247,-4648,1028,15664,191,1333,130
58268,-4592,1008,15648,206,1347,123
58290,-4616,992,15728,208,1326,114
58311,-4672,984,15728,201,1377,134
58334,-4644,996,15652,209,1348,125
58352,-4640,920,15644,184,1330,148
58378,-4640,1028,15604,154,1311,130
58398,-4644,996,15632,183,1360,168
58420,-4628,996,15708,181,1330,122
58443,-4628,988,15736,163,1331,130
58466,-4636,988,15644,208,1330,116
58488,-4616,996,15716,195,1379,141
58510,-4636,996,15700,203,1362,115
58532,-4620,1004,15704,200,1356,144
58554,-4648,1028,15668,162,1372,130
58576,-4640,1024,15736,166,1278,142
58598,-4620,1008,15552,193,1348,133
58620,-4624,1020,15760,209,1358,117
58642,-4700,1016,15704,186,1323,108
58664,-4660,1012,15620,177,1315,120
58686,-4604,1012,15704,240,1370,107
58703,-4712,1024,15724,197,1344,143
58731,-4608,988,15640,174,1332,131
58752,-4568,1012,15776,146,1337,141
58774,-4680,1028,15688,179,1362,134
58797,-4664,972,15796,184,1317,130
58814,-4696,1000,15752,169,1301,143
58840,-4604,956,15692,199,1365,166
58863,-4632,956,15744,181,1338,125
58885,-4676,948,15676,192,1351,113
58905,-4708,1000,15580,225,1327,115
58920,-4644,1048,15776,190,1355,157
58950,-4612,980,15724,170,1350,146
58970,-4664,992,15704,227,1353,115
58994,-4728,988,15676,170,1324,119
59016,-4656,1016,15776,201,1320,123
59037,-4640,1012,15652,187,1333,122
59060,-4672,1068,15776,156,1320,132
59075,-4636,940,15692,189,1335,119
59104,-4592,976,15628,207,1321,123
59126,-4612,1048,15776,203,1351,152
59148,-4628,1020,15732,222,1337,119
59170,-4704,988,15776,186,1276,143
59187,-4596,1040,15800,212,1354,154
59214,-4608,1028,15636,175,1376,95
59236,-4716,1008,15744,175,1338,115
59253,-4612,972,15684,215,1338,127
59281,-4540,968,15636,186,1333,144
59303,-4664,992,15824,201,1329,132
59325,-4616,992,15632,200,1338,113
59347,-4588,1040,15652,231,1312,132
59368,-4668,980,15644,201,1352,158
59389,-4636,1000,15668,175,1366,145
59410,-4608,968,15772,176,1323,118
59433,-4664,1020,15724,188,1284,157
59456,-4664,992,15608,234,1346,119
59478,-4612,1008,15820,159,1335,115
59500,-4728,1008,15752,185,1359,146
59523,-4596,980,15660,195,1348,129
59543,-4672,1012,15840,193,1320,113
59566,-4652,984,15680,209,1270,100
59588,-4580,984,15628,215,1345,122
59610,-4620,972,15692,198,1342,85
59632,-4568,988,15684,204,1352,123
59654,-4636,1016,15672,215,1299,139
59676,-4624,996,15760,213,1330,148
59698,-4612,932,15748,164,1358,108
59720,-4600,1016,15700,148,1365,94
59742,-4628,988,15748,197,1316,136
59764,-4632,1028,15716,209,1332,91
59786,-4640,1032,15660,187,1356,116
59808,-4632,960,15724,174,1368,92
59830,-4660,976,15620,212,1350,123
59852,-4636,1036,15716,205,1324,139
59875,-4660,1032,15704,216,1346,152
59887,-4684,984,15772,169,1337,154
59919,-4632,1084,15708,201,1312,131
59939,-4592,912,15636,196,1317,136
59962,-4616,996,15664,159,1308,138
59981,-4600,968,15688,198,1316,143
60005,-4644,1016,15708,211,1325,118
60028,-4608,972,15804,195,1366,113
60051,-4612,1016,15596,169,1366,125
60072,-4620,976,15644,164,1353,135
60094,-4648,996,15648,185,1342,118
60116,-4620,996,15680,181,1340,123
60137,-4588,1016,15712,191,1305,114
60160,-4568,1020,15772,210,1354,122
60183,-4596,992,15600,211,1334,141
60204,-4628,1016,15672,192,1315,131
60227,-4628,1036,15676,198,1354,106
60248,-4676,996,15692,199,1325,146
60270,-4668,1020,15764,203,1344,122
60292,-4656,944,15812,167,1338,131
60314,-4580,968,15612,156,1337,114
60336,-4608,1000,15628,188,1350,134
60358,-4628,1008,15760,165,1336,109
60380,-4612,968,15588,186,1367,134
60403,-4680,1056,15792,203,1338,125
60425,-4696,964,15620,170,1360,115
60447,-4672,984,15692,216,1333,129
60464,-4620,1004,15748,206,1355,131
60481,-4664,988,15608,181,1340,140
60512,-4696,960,15712,162,1332,123
60531,-4660,988,15672,202,1320,126
60554,-4632,984,15652,174,1351,153
60577,-4640,1000,15680,188,1376,100
60598,-4636,1064,15704,198,1340,131
60613,-4584,972,15636,185,1374,113
60645,-4668,1004,15620,187,1321,156
60665,-4648,988,15608,177,1355,158
60688,-4656,1004,15620,194,1354,137
60711,-4628,1088,15748,199,1347,142
60732,-4588,964,15704,193,1335,115
60754,-4652,1024,15676,183,1336,108
60776,-4668,1020,15652,203,1300,162
60798,-4660,964,15684,173,1357,122
60820,-4616,972,15676,213,1318,112
60842,-4544,972,15744,193,1337,118
60865,-4624,924,15720,254,1340,136
60887,-4652,1076,15768,172,1328,145
60908,-4608,1012,15680,214,1349,132
60930,-4584,1008,15580,206,1324,137
60953,-4620,984,15764,227,1328,143
60975,-4560,1028,15708,166,1329,84
60992,-4592,996,15756,185,1330,139
61014,-4656,1040,15704,215,1343,149
61041,-4640,1000,15748,205,1356,133
61062,-4624,1020,15772,202,1338,144
61084,-4588,988,15608,211,1327,104
61105,-4592,940,15608,193,1293,125
61127,-4652,1036,15736,178,1346,135
61149,-4604,1012,15760,152,1317,144
61164,-4656,1032,15704,197,1344,115
61193,-4624,1028,15740,181,1351,142
61216,-4628,920,15700,168,1342,117
61238,-4660,1024,15684,186,1346,143
61260,-4748,1036,15696,177,1340,128
61282,-4592,988,15652,211,1322,104
61303,-4648,964,15616,201,1341,145
61326,-4656,1068,15784,176,1299,118
61348,-4608,980,15636,163,1367,150
61370,-4592,1032,15716,212,1343,160
61392,-4668,1008,15680,190,1319,121
61414,-4668,1016,15652,222,1325,145
61436,-4608,960,15744,185,1344,107
61458,-4724,1012,15712,209,1340,128
61480,-4608,968,15652,191,1355,149
61503,-4664,956,15708,198,1322,125
61524,-4680,1004,15656,223,1358,120
61547,-4592,1012,15636,205,1339,132
61564,-4620,1048,15712,165,1347,142
61591,-4640,964,15748,209,1332,138
61612,-4632,944,15704,230,1338,100
61631,-4644,988,15756,169,1346,121
61657,-4644,1004,15604,209,1318,127
61678,-4656,1004,15744,166,1337,147
61700,-4692,1052,15792,191,1352,124
61714,-4636,1024,15660,192,1357,133
61744,-4644,960,15816,205,1323,107
61765,-4568,1024,15620,187,1347,131
61787,-4540,948,15600,207,1353,121
61810,-4652,1020,15748,224,1332,110
61833,-4668,1008,15576,236,1365,125
61855,-4664,960,15628,172,1336,117
61876,-4628,964,15740,156,1312,149
61892,-4628,1040,15592,196,1342,116
61920,-4592,984,15704,179,1313,168
61942,-4588,1016,15860,189,1352,99
61963,-4688,1008,15636,227,1345,135
61986,-4632,960,15704,171,1332,124
62007,-4592,1016,15660,217,1395,161
62030,-4612,1000,15684,211,1365,138
62053,-4664,1028,15840,209,1341,122
62075,-4580,992,15704,186,1334,147
62097,-4604,1028,15664,203,1323,122
62114,-4636,1024,15680,183,1350,131
62139,-4696,976,15676,236,1358,138
62153,-4604,984,15652,194,1323,135
62184,-4612,976,15712,203,1357,105
62206,-4616,940,15696,210,1356,119
62229,-4648,1036,15768,201,1290,137
62250,-4564,1020,15780,189,1353,127
62272,-4604,944,15668,185,1349,136
62294,-4632,928,15684,206,1344,113
62316,-4636,956,15704,178,1342,117
62339,-4636,1008,15652,181,1351,156
62356,-4656,1004,15800,201,1328,129
62382,-4668,932,15656,239,1353,114
62404,-4688,1036,15692,192,1343,103
62426,-4676,1000,15776,222,1302,91
62449,-4640,980,15716,183,1349,130
62471,-4604,1068,15768,174,1332,163
62492,-4672,1044,15676,178,1327,141
62514,-4648,956,15676,203,1301,143
62536,-4592,1044,15756,179,1356,122
62558,-4676,964,15724,226,1329,150
62580,-4636,964,15748,188,1336,143
62602,-4596,1016,15696,195,1335,124
62625,-4656,940,15692,158,1327,122
62647,-4648,1032,15736,221,1369,108
62666,-4656,1060,15796,206,1329,164
62688,-4592,1028,15644,189,1361,161
62712,-4632,984,15712,177,1357,118
62731,-4692,940,15624,183,1347,130
62756,-4636,984,15536,188,1335,156
62778,-4636,1056,15708,172,1305,103
62801,-4644,996,15620,230,1346,126
62822,-4636,976,15688,200,1336,145
62844,-4652,968,15728,215,1330,123
62864,-4632,1004,15720,210,1290,130
62888,-4588,992,15740,149,1304,117
62909,-4704,1008,15680,214,1363,106
62931,-4616,992,15664,187,1301,117
62954,-4680,932,15700,136,1337,126
62976,-4664,1024,15732,227,1357,92
62999,-4664,1028,15724,186,1363,122
63020,-4620,1012,15684,178,1320,149
63042,-4572,1016,15708,196,1324,123
63065,-4604,1012,15632,203,1363,138
63087,-4648,1008,15764,187,1314,136
63108,-4624,980,15796,232,1373,122
63129,-4584,1008,15648,188,1375,142
63153,-4676,1028,15776,151,1357,139
63174,-4592,1020,15624,180,1331,122
63193,-4676,936,15728,175,1316,137
63215,-4656,964,15800,169,1330,117
63237,-4660,1056,15740,181,1344,127
63259,-4612,1036,15664,182,1327,119
63280,-4648,976,15760,176,1330,142
63303,-4568,916,15656,199,1385,128
63325,-4692,1000,15716,207,1362,136
63347,-4616,1012,15808,182,1315,153
63365,-4572,1000,15660,202,1335,104
63394,-4672,980,15776,178,1348,129
63416,-4636,1016,15596,195,1363,121
63438,-4624,1032,15732,213,1349,124
63460,-4628,1008,15744,174,1305,139
63482,-4584,1068,15632,194,1363,118
63504,-4688,952,15756,170,1293,113
63526,-4624,1016,15644,190,1328,146
63548,-4676,928,15652,177,1328,122
63570,-4620,972,15764,204,1305,122
63591,-4596,956,15796,195,1344,139
63614,-4580,908,15696,195,1336,113
63637,-4612,960,15780,202,1323,142
63657,-4584,948,15712,204,1324,104
63680,-4660,1008,15692,188,1401,111
63703,-4716,1024,15636,203,1338,110
63724,-4540,972,15720,184,1340,141
63747,-4704,988,15652,180,1326,133
63768,-4652,956,15720,184,1319,155
63791,-4592,1008,15664,254,1366,119
63808,-4644,948,15720,194,1292,96
63835,-4676,964,15708,210,1330,104
63853,-4604,956,15724,190,1321,124
63878,-4660,1008,15832,181,1345,127
63900,-4628,992,15744,188,1318,141
63922,-4600,984,15728,174,1344,112
63944,-4608,1008,15716,250,1316,134
63966,-4636,972,15616,200,1359,138
63988,-4692,1008,15736,216,1353,110
64010,-4600,1008,15724,177,1347,127
64032,-4632,948,15624,171,1319,144
64054,-4640,992,15644,200,1332,142
64076,-4636,1004,15572,191,1335,148
64097,-4536,1008,15680,157,1341,188
64119,-4680,936,15668,218,1334,142
64143,-4684,968,15616,186,1356,148
64164,-4644,1080,15676,184,1338,137
64185,-4644,944,15720,205,1362,108
64208,-4616,1008,15624,204,1343,143
64231,-4596,960,15640,184,1371,147
64252,-4632,984,15772,202,1308,139
64275,-4604,912,15564,178,1331,126
64294,-4596,1012,15760,223,1349,98
64318,-4656,1012,15660,173,1315,120
64339,-4636,920,15748,214,1336,132
64362,-4596,1028,15728,174,1356,134
64385,-4660,1016,15796,203,1346,126
64404,-4624,964,15800,163,1330,129
64428,-4624,1012,15784,189,1316,153
64450,-4600,1056,15744,206,1327,97
64472,-4624,912,15728,169,1342,110
64494,-4688,1016,15664,181,1320,134
64516,-4576,1012,15640,171,1341,151
64538,-4652,960,15620,192,1310,123
64559,-4632,1024,15732,163,1337,120
64581,-4612,964,15660,181,1330,154
64604,-4656,1012,15640,200,1324,165
64626,-4584,956,15784,234,1345,118
64641,-4640,1012,15608,185,1349,124
64671,-4596,968,15656,186,1327,139
64692,-4632,1040,15700,216,1322,119
64714,-4608,956,15612,165,1327,140
64736,-4636,1000,15796,210,1356,132
64752,-4656,968,15552,208,1326,143
64781,-4628,980,15688,199,1355,125
64803,-4632,1000,15652,192,1324,111
64825,-4676,996,15660,208,1336,134
64846,-4628,960,15736,205,1311,128
64864,-4604,996,15700,185,1350,139
64890,-4568,972,15652,201,1363,134
64903,-4708,1032,15772,233,1317,113
64934,-4668,972,15720,172,1306,126
64957,-4636,984,15612,214,1328,127
64978,-4540,992,15740,180,1335,111
64998,-4656,1060,15648,174,1330,155
65021,-4592,972,15604,165,1286,135
65044,-4600,1012,15748,196,1352,134
65065,-4476,1004,15764,217,1364,111
65087,-4624,988,15732,177,1348,131
65110,-4636,1000,15764,196,1353,128
65132,-4644,936,15724,166,1324,119
65154,-4628,1008,15780,170,1306,125
65176,-4684,952,15732,203,1291,114
65198,-4620,992,15764,216,1317,110
65220,-4612,972,15720,201,1352,120
65242,-4628,996,15696,172,1346,102
65264,-4636,1032,15580,188,1319,128
65286,-4584,984,15652,180,1306,136
65309,-4684,988,15744,205,1354,159
65325,-4616,1004,15748,176,1369,124
65352,-4632,1032,15760,171,1348,164
65375,-4588,984,15684,206,1317,164
65394,-4584,1020,15660,171,1340,139
65409,-4624,1020,15648,202,1323,106
65440,-4576,964,15604,197,1381,120
65461,-4632,976,15616,225,1335,94
65484,-4636,1028,15624,143,1342,146
65507,-4644,972,15644,183,1349,134
65528,-4648,980,15752,184,1359,136
65550,-4652,1028,15580,167,1318,143
65572,-4676,1008,15692,195,1307,122
65593,-4708,924,15820,150,1359,156
65616,-4664,996,15744,190,1327,117
65638,-4552,980,15684,211,1316,150
65659,-4656,1036,15672,220,1330,123
65682,-4580,1032,15644,198,1327,117
65697,-4692,968,15676,186,1352,118
65726,-4656,1020,15656,206,1298,141
65747,-4672,988,15624,218,1332,115
65770,-4632,964,15688,204,1360,148
65792,-4616,940,15756,194,1371,124
65814,-4676,1048,15796,175,1362,113
65836,-4584,1036,15672,193,1324,137
65858,-4604,980,15716,176,1376,154
65880,-4656,1000,15788,179,1359,130
65902,-4700,956,15740,198,1329,102
65924,-4616,1012,15716,188,1391,134
65942,-4676,960,15592,200,1313,151
65965,-4700,1036,15680,202,1333,140
65990,-4632,964,15548,167,1309,109
66009,-4688,972,15688,206,1333,116
66035,-4656,988,15632,135,1374,157
66056,-4640,916,15576,183,1321,112
66075,-4636,1008,15700,162,1319,137
66099,-4616,1004,15676,176,1361,108
66121,-4692,1008,15652,185,1342,141
66144,-4672,968,15772,210,1323,152
66166,-4592,916,15692,184,1360,121
66186,-4600,1008,15708,205,1354,118
66210,-4632,1000,15808,230,1362,119
66232,-4656,988,15624,163,1340,107
66253,-4624,968,15632,174,1331,149
66276,-4668,1004,15620,182,1377,144
66298,-4608,960,15600,154,1317,122
66320,-4624,1060,15800,159,1363,136
66342,-4600,956,15700,207,1362,120
66358,-4640,1004,15760,198,1346,109
66386,-4652,992,15736,193,1347,138
66408,-4704,968,15672,204,1359,128
66430,-4676,1012,15648,201,1331,129
66453,-4668,1036,15740,135,1317,136
66474,-4596,984,15688,157,1322,126
66497,-4708,1004,15728,198,1341,132
66509,-4612,1004,15708,212,1293,159
66540,-4572,968,15672,187,1366,101
66563,-4616,1040,15700,199,1355,106
66583,-4620,1028,15812,217,1361,128
66606,-4660,968,15740,195,1342,114
66629,-4708,988,15680,206,1311,98
66643,-4620,984,15712,206,1366,123
66672,-4656,960,15664,167,1316,107
66694,-4600,920,15572,218,1325,141
66715,-4668,988,15648,186,1378,132
66737,-4644,996,15728,181,1341,140
66760,-4620,936,15692,221,1331,146
66782,-4640,980,15672,227,1351,145
66804,-4616,1028,15576,229,1348,97
66825,-4584,964,15704,179,1339,133
66843,-4600,992,15680,181,1337,137
66870,-4564,976,15664,190,1306,146
66892,-4680,996,15672,183,1343,117
66914,-4664,956,15644,215,1363,99
66935,-4604,1016,15692,166,1314,119
66958,-4616,1012,15732,190,1349,153
66980,-4644,976,15660,200,1345,147
67002,-4640,1016,15736,230,1301,98
67024,-4640,956,15808,229,1341,145
67046,-4580,980,15708,208,1380,160
67068,-4608,996,15624,208,1355,124
67087,-4640,940,15760,196,1344,131
67103,-4568,992,15780,206,1310,115
67134,-4612,976,15756,166,1349,128
67154,-4652,960,15684,194,1336,106
67178,-4632,1008,15664,200,1350,104
67200,-4624,1024,15616,201,1350,108
67222,-4576,944,15728,199,1322,146
67244,-4616,1024,15752,190,1313,113
67265,-4604,988,15588,149,1330,121
67287,-4624,960,15592,206,1376,148
67310,-4564,1020,15688,165,1344,137
67331,-4576,952,15736,182,1349,126
67347,-4652,992,15648,201,1355,121
67375,-4660,1008,15784,192,1358,131
67398,-4604,944,15648,171,1338,101
67420,-4616,920,15672,199,1356,132
67442,-4656,996,15796,217,1314,157
67463,-4640,976,15648,185,1380,138
67486,-4632,1024,15696,192,1349,135
67508,-4620,1044,15724,199,1357,118
67530,-4608,1012,15644,173,1322,115
67553,-4540,968,15796,204,1342,124
67575,-4652,972,15664,218,1341,144
67597,-4620,988,15724,199,1324,150
67618,-4700,988,15668,201,1347,136
67636,-4604,1004,15724,202,1305,159
67662,-4616,956,15788,192,1343,141
67684,-4612,1024,15656,183,1337,128
67704,-4568,1000,15648,203,1318,132
67720,-4664,1000,15748,177,1326,138
67750,-4580,1012,15712,211,1346,152
67771,-4648,1004,15716,233,1353,122
67792,-4700,1008,15740,183,1321,113
67815,-4620,1028,15700,170,1326,88
67838,-4592,996,15684,190,1302,151
67860,-4636,976,15796,188,1374,129
67882,-4624,1016,15696,175,1302,120
67904,-4620,976,15680,176,1336,127
67927,-4584,1016,15792,222,1355,130
67948,-4608,992,15644,192,1350,102
67969,-4680,1020,15780,186,1312,130
67992,-4660,996,15676,186,1345,104
68014,-4608,992,15764,208,1344,136
68036,-4600,996,15740,214,1348,123
68058,-4648,1032,15684,208,1337,99
68080,-4664,1004,15572,220,1345,147
68102,-4636,996,15688,177,1338,141
68121,-4620,960,15736,227,1354,116
68146,-4712,988,15756,196,1320,130
68164,-4636,1012,15776,172,1326,115
68190,-4544,1032,15644,168,1307,148
68212,-4700,992,15752,194,1349,174
68232,-4572,1012,15696,196,1364,106
68256,-4656,968,15652,182,1328,143
68278,-4624,1060,15720,171,1345,152
68301,-4580,1056,15796,201,1346,141
68321,-4616,996,15736,203,1326,123
68343,-4656,1016,15604,204,1324,122
68365,-4604,1012,15664,226,1332,134
68388,-4644,996,15708,195,1345,114
68411,-4656,1004,15780,211,1332,112
68425,-4632,980,15680,217,1334,139
68454,-4632,976,15680,185,1344,113
68476,-4628,960,15764,213,1366,131
68497,-4560,984,15708,199,1379,145
68520,-4616,1016,15768,213,1309,139
68542,-4652,984,15740,188,1358,126
68564,-4660,988,15620,166,1351,130
68586,-4684,1008,15692,168,1303,118
68608,-4580,972,15720,247,1387,156
68630,-4612,984,15596,182,1336,105
68652,-4660,1000,15644,196,1316,130
68676,-4628,1016,15644,182,1309,125
68687,-4664,948,15708,202,1358,137
68718,-4608,1016,15808,190,1329,146
68740,-4692,976,15724,176,1313,133
68763,-4692,952,15700,205,1326,126
68784,-4620,960,15748,182,1388,137
68803,-4576,996,15748,179,1361,138
68828,-4668,980,15680,157,1334,160
68850,-4660,1004,15680,223,1353,130
68871,-4724,948,15632,219,1310,103
68893,-4632,980,15692,178,1314,106
68916,-4644,1012,15792,223,1399,143
68938,-4696,980,15728,185,1324,121
68960,-4576,1004,15752,231,1372,140
68982,-4592,1008,15704,188,1348,123
69004,-4644,960,15672,204,1336,147
69026,-4604,1028,15704,199,1313,148
69048,-4596,1020,15580,193,1307,128
69070,-4628,980,15812,174,1315,115
69092,-4700,1032,15664,181,1319,143
69114,-4656,976,15620,196,1339,124
69137,-4640,996,15656,185,1334,119
69158,-4620,980,15512,194,1327,136
69180,-4652,944,15732,199,1340,92
69199,-4588,1024,15700,171,1332,144
69225,-4648,1020,15616,148,1343,133
69246,-4600,1016,15708,173,1316,134
69264,-4644,964,15760,176,1304,132
69287,-4548,996,15600,168,1372,139
69310,-4676,956,15712,179,1339,124
69332,-4676,1024,15700,209,1329,119
69354,-4612,948,15736,194,1372,113
69378,-4708,992,15696,150,1330,163
69401,-4632,1024,15696,160,1299,164
69422,-4616,984,15708,180,1361,127
69442,-4628,972,15688,197,1370,142
69467,-4664,972,15604,222,1337,130
69488,-4616,1020,15768,213,1349,147
69510,-4620,1016,15732,192,1354,153
69531,-4648,1012,15704,225,1325,146
69554,-4624,992,15664,198,1348,123
69576,-4680,1072,15796,152,1322,115
69598,-4528,992,15704,199,1345,135
69620,-4608,992,15616,196,1346,93
69641,-4600,1016,15764,199,1358,136
69664,-4636,948,15700,201,1339,143
69680,-4672,1008,15704,159,1311,108
69708,-4584,960,15668,203,1345,113
69731,-4620,992,15672,190,1362,132
69752,-4616,1040,15784,187,1341,131
69775,-4612,1024,15664,192,1338,117
69796,-4608,1004,15512,219,1320,132
69818,-4680,992,15796,197,1319,122
69841,-4660,1028,15740,230,1338,126
69862,-4632,1008,15684,162,1304,136
69881,-4652,988,15640,195,1323,108
69907,-4616,988,15656,176,1298,136
69926,-4652,924,15700,180,1333,97
69950,-4596,992,15624,227,1331,129
69971,-4612,996,15652,186,1374,109
69993,-4640,996,15736,199,1370,131
70016,-4656,972,15620,205,1330,125
70038,-4644,1044,15708,210,1317,142
70060,-4708,976,15808,201,1346,115
70082,-4632,1040,15560,184,1339,138
70104,-4640,984,15708,188,1356,131
70126,-4636,1020,15680,230,1309,134
70148,-4556,928,15680,162,1349,128
70170,-4656,976,15652,167,1339,105
70191,-4668,940,15820,158,1335,144
70214,-4624,924,15816,191,1336,117
70236,-4576,1000,15684,207,1320,126
70257,-4632,1020,15620,188,1353,162
70280,-4584,1016,15704,190,1342,139
70302,-4660,956,15772,175,1331,136
70325,-4628,996,15664,175,1381,131
70345,-4604,1004,15744,172,1381,121
70367,-4652,980,15752,190,1356,125
70390,-4556,956,15752,187,1365,136
70411,-4676,972,15756,176,1341,149
70434,-4588,940,15792,196,1324,107
70453,-4636,1012,15696,177,1383,144
70475,-4680,1004,15724,183,1342,125
70492,-4636,988,15792,195,1366,108
70522,-4668,1008,15832,245,1314,111
70545,-4664,1016,15788,173,1309,134
70564,-4628,952,15736,153,1368,145
70588,-4572,944,15700,178,1329,130
70610,-4716,988,15720,213,1347,146
70632,-4568,952,15660,188,1357,147
70653,-4628,972,15784,160,1319,143
70676,-4648,1040,15868,174,1324,142
70698,-4612,1020,15768,211,1376,120
70719,-4652,952,15704,196,1348,154
70742,-4628,1020,15680,186,1342,121
70764,-4680,1008,15716,181,1306,136
70786,-4636,968,15732,206,1330,145
70808,-4648,1056,15748,197,1348,137
70830,-4672,1008,15636,203,1336,133
70852,-4652,1020,15752,201,1331,150
70875,-4600,984,15712,196,1361,125
70890,-4696,984,15652,164,1330,150
70918,-4684,1020,15756,223,1371,103
70940,-4608,952,15752,188,1317,84
70962,-4596,1004,15776,188,1360,117
70981,-4664,932,15732,227,1298,110
71004,-4584,948,15732,188,1319,153
71025,-4636,1048,15788,204,1361,116
71048,-4664,1024,15712,208,1328,124
71071,-4680,1040,15704,182,1332,116
71093,-4580,1060,15840,198,1318,120
71116,-4592,1016,15688,213,1341,141
71138,-4656,944,15744,214,1362,119
71159,-4660,1004,15580,200,1364,108
71181,-4636,1020,15584,178,1390,110
71203,-4596,1008,15760,175,1322,131
71219,-4632,1036,15724,194,1366,163
71248,-4680,988,15680,215,1339,123
71269,-4572,964,15808,177,1299,130
71292,-4572,976,15700,167,1362,123
71313,-4688,1012,15676,168,1343,125
71336,-4620,984,15644,196,1362,118
71358,-4572,968,15672,198,1353,124
71379,-4652,1016,15700,176,1373,152
71403,-4656,964,15804,163,1334,127
71424,-4608,1024,15720,183,1360,132
71443,-4648,948,15544,194,1320,132
71468,-4652,1008,15720,189,1332,105
71488,-4600,968,15804,197,1322,144
71512,-4592,996,15608,165,1305,139
71532,-4652,964,15708,198,1319,114
71555,-4684,988,15636,194,1378,104
71576,-4644,1004,15800,201,1319,161
71598,-4580,992,15724,165,1342,167
71621,-4572,984,15692,184,1361,110
71636,-4688,968,15772,198,1353,143
71666,-4592,972,15644,214,1317,129
71688,-4656,1016,15672,192,1378,120
71709,-4636,1060,15748,169,1364,122
71732,-4640,1048,15720,183,1309,156
71754,-4692,1012,15664,180,1308,112
71776,-4612,1004,15720,181,1342,130
71798,-4592,980,15556,196,1331,154
71821,-4716,1048,15780,200,1311,127
71842,-4616,960,15644,194,1365,149
71864,-4696,968,15700,189,1318,155
71886,-4668,1020,15744,224,1345,148
71907,-4620,992,15776,171,1329,120
71931,-4632,936,15708,201,1324,137
71953,-4644,972,15672,182,1305,141
71974,-4640,1008,15708,204,1346,125
71994,-4628,952,15752,193,1324,129
72015,-4656,968,15720,174,1333,160
72039,-4648,1000,15636,199,1317,142
72053,-4624,1008,15712,197,1365,120
72084,-4636,1080,15684,197,1321,159
72105,-4632,1036,15604,188,1324,120
72126,-4604,988,15684,189,1323,122
72149,-4564,1052,15704,197,1349,125
72171,-4688,984,15688,187,1326,110
72194,-4704,968,15640,200,1337,128
72215,-4596,972,15716,217,1339,130
72238,-4648,992,15764,190,1328,99
72260,-4652,984,15576,183,1369,126
72281,-4624,932,15704,199,1344,163
72304,-4660,976,15812,179,1337,101
72326,-4588,1044,15724,243,1281,93
72348,-4660,1012,15796,190,1348,149
72370,-4636,996,15772,205,1329,132
72391,-4672,992,15700,205,1363,115
72408,-4632,960,15656,195,1338,103
72435,-4644,972,15764,199,1331,137
72459,-4596,1004,15736,173,1330,147
72480,-4652,1012,15676,199,1320,145
72502,-4592,1040,15704,197,1307,133
72522,-4640,1028,15616,202,1350,122
72546,-4688,972,15652,205,1337,141
72564,-4624,1092,15788,201,1334,127
72590,-4652,968,15604,171,1300,130
72609,-4640,968,15716,232,1347,106
72625,-4656,988,15792,207,1365,106
72657,-4636,984,15660,227,1336,132
72676,-4640,1052,15732,186,1322,117
72700,-4704,996,15736,167,1366,107
72722,-4648,940,15624,204,1301,124
72744,-4624,992,15720,219,1344,111
72764,-4584,1028,15672,214,1317,94
72788,-4632,928,15720,190,1345,152
72809,-4672,1032,15720,191,1319,113
72826,-4528,952,15728,169,1356,137
72854,-4596,1024,15652,201,1331,113
72875,-4640,964,15760,164,1349,124
72898,-4676,984,15688,196,1332,102
72920,-4580,1004,15596,182,1318,125
72941,-4604,1028,15720,181,1376,125
72963,-4620,940,15644,184,1355,114
72986,-4692,992,15676,194,1336,118
73008,-4592,1020,15772,188,1306,120
73030,-4668,1000,15632,206,1332,139
73052,-4744,936,15676,150,1302,134
73075,-4632,948,15656,183,1364,102
73094,-4640,988,15736,178,1323,132
73114,-4604,1020,15800,196,1302,177
73140,-4624,1060,15572,171,1347,138
73160,-4612,948,15724,177,1332,130
73177,-4644,996,15724,162,1345,124
73206,-4640,996,15736,168,1343,138
73228,-4740,1036,15728,192,1355,153
73250,-4588,1000,15636,183,1318,137
73271,-4576,1004,15584,210,1346,162
73294,-4604,1040,15804,205,1326,132
73316,-4656,940,15688,152,1348,113
73331,-4640,980,15688,206,1336,132
73360,-4600,944,15640,183,1374,112
73382,-4624,976,15692,223,1341,118
73404,-4672,992,15704,215,1347,143
73426,-4596,1052,15692,203,1322,144
73448,-4644,936,15644,171,1372,130
73469,-4620,1020,15796,201,1305,100
73492,-4724,1012,15744,216,1329,113
73513,-4652,1008,15616,171,1369,111
73536,-4660,1048,15696,219,1364,101
73558,-4692,1044,15636,189,1391,145
73581,-4580,1024,15708,197,1319,130
73602,-4624,1020,15596,224,1364,136
73621,-4632,984,15668,206,1316,140
73643,-4640,992,15516,206,1345,136
73667,-4612,984,15636,209,1324,121
73688,-4572,988,15720,230,1354,136
73710,-4612,952,15668,210,1296,131
73725,-4688,984,15704,227,1360,139
73756,-4636,1064,15688,195,1327,135
73777,-4680,932,15780,193,1331,122
73800,-4584,956,15604,213,1321,131
73822,-4636,992,15744,198,1341,109
73843,-4660,996,15672,179,1349,133
73865,-4592,968,15768,147,1320,107
73887,-4588,1008,15708,184,1340,120
73909,-4692,1040,15716,213,1308,137
73932,-4564,1040,15708,202,1338,112
73954,-4592,1016,15656,221,1335,89
73976,-4612,1024,15640,181,1363,133
73998,-4640,992,15688,169,1374,136
74019,-4636,1000,15632,197,1307,153
74042,-4612,976,15720,212,1341,150
74064,-4640,932,15716,206,1367,102
74086,-4644,1064,15652,180,1327,132
74108,-4620,1012,15728,173,1351,129
74131,-4648,964,15744,183,1367,119
74152,-4652,1012,15728,208,1292,103
74170,-4596,956,15680,192,1361,112
74196,-4688,1036,15608,152,1317,103
74218,-4664,1040,15700,183,1371,102
74238,-4624,988,15676,203,1349,117
74259,-4628,1036,15768,181,1339,160
74275,-4600,1056,15708,221,1341,126
74306,-4612,984,15648,226,1366,108
74326,-4608,1012,15676,185,1360,119
74350,-4616,1008,15704,162,1339,126
74372,-4628,1036,15760,180,1310,123
74393,-4676,1060,15752,192,1349,130
74416,-4596,1072,15744,181,1363,147
74438,-4640,996,15692,208,1336,127
74458,-4656,1032,15676,191,1344,157
74482,-4632,1008,15716,156,1347,128
74504,-4684,1012,15748,184,1303,133
74526,-4620,968,15752,196,1372,142
74548,-4620,1016,15744,181,1349,141
74570,-4636,984,15720,207,1332,123
74592,-4624,988,15716,174,1359,127
74614,-4564,964,15680,196,1351,137
74636,-4740,936,15716,204,1345,114
74658,-4656,1008,15672,187,1349,135
74680,-4680,952,15692,192,1353,139
74703,-4712,1020,15612,203,1370,124
74724,-4656,964,15752,131,1333,114
74745,-4656,1004,15728,191,1347,168
74764,-4624,964,15824,184,1364,131
74787,-4644,980,15644,174,1314,154
74812,-4692,1016,15728,208,1297,111
74831,-4624,1056,15724,166,1349,131
74856,-4576,972,15716,202,1401,142
74878,-4716,1044,15756,202,1354,112
