timestamp,ax,ay,az,gx,gy,gz
102,-32768,13288,-12064,5339,3106,-21747
123,-32768,16776,-14680,7299,2717,-29987
146,-30764,20696,-12576,8738,-2946,-32768
167,-19820,21352,-8528,7592,-9749,-32768
189,-8816,18064,-9128,5646,-6706,-32768
211,644,14176,-10900,5588,-98,-32768
234,7036,8240,-12092,5150,-2424,-32768
250,11224,2020,-12920,4435,-6064,-26695
276,12000,-3464,-14784,5599,-358,-18847
300,6556,-5276,-13944,8044,8173,-12199
321,544,-5152,-11236,8831,5577,-8615
341,-1796,-6744,-8192,8491,-1331,-6716
365,-4428,-8348,-2804,8419,-1904,-4766
379,-8736,-7988,5196,7072,-412,-3621
410,-12656,-6748,12408,2801,-2988,-3673
429,-12960,-6532,18384,-3540,-7282,-4054
454,-11008,-4896,24792,-11719,-10720,-3687
475,-6096,-2388,26556,-21412,-11623,-1776
497,-1068,1980,23244,-30754,-11714,2426
519,1288,8420,17452,-32768,-11873,8363
541,260,14236,7780,-32768,-11325,14687
563,-4228,17216,-3812,-32768,-7303,19143
586,-9996,20500,-13468,-32768,-2062,20566
608,-16632,22160,-21048,-32768,-5520,20070
629,-22936,22572,-28456,-31254,-5709,17571
652,-26404,21280,-32644,-24076,-7920,13637
673,-26932,20624,-32768,-16688,-9082,9203
697,-23440,20568,-32136,-10165,-10036,5282
718,-16876,20068,-31556,-3859,-10392,3293
739,-9512,19292,-30744,2743,-9424,3807
760,-3332,17988,-28188,9616,-7916,6575
784,0,17732,-23424,15907,-6542,10578
803,1936,18616,-17060,20711,-6221,14621
824,3540,20384,-11424,23567,-7715,18635
847,5252,21236,-7616,24988,-10395,22702
868,4528,21680,-5980,26574,-7742,27051
893,-712,22608,-4176,27874,-1610,30976
915,-6732,22968,-2580,28008,-2620,32767
936,-13024,23548,-172,28089,-2142,32767
952,-21660,23664,2696,26992,2397,31667
981,-30748,23020,5756,23921,2555,27297
1002,-32768,21248,9208,19166,526,19969
1024,-32768,18584,10620,13683,-1819,10724
1045,-32768,16812,8132,8558,-1767,928
1068,-32768,16988,2752,5012,-1478,-8925
1090,-32768,17848,-4036,3951,1171,-17900
1112,-32768,19448,-11752,5398,5897,-26285
1134,-32768,24800,-18732,9556,8519,-32768
1156,-32768,32312,-20368,14665,3537,-32768
1173,-30580,32767,-12700,17612,-4758,-32768
1202,-14288,32767,-3244,15313,-12584,-32768
1221,4560,32767,2956,8485,-18053,-32768
1246,20768,21312,2260,217,-19324,-32768
1267,29156,8308,-4876,-4680,-12330,-32768
1290,28344,-92,-11476,-5170,-1888,-24306
1312,22060,-3088,-15628,-3719,4495,-12786
1333,12480,-4624,-18712,-1545,6129,-4818
1351,3272,-4964,-20044,1219,5656,-739
1375,-1576,-5664,-18488,4138,3467,860
1399,-4116,-6824,-13320,6641,1108,1983
1421,-7168,-8020,-4316,7352,-1100,3123
1440,-11072,-7892,5580,5526,-1410,3561
1463,-14500,-7788,14396,968,-1600,3571
1488,-16260,-6864,22176,-6031,-3795,3206
1508,-14544,-5004,24992,-14577,-6526,3051
1531,-11920,-1592,23696,-23338,-7555,4160
1553,-10844,2832,13964,-30727,-3836,5976
1575,-10844,6784,-24,-32768,-448,7170
1598,-12492,9092,-12880,-32768,-81,7851
1618,-14908,10764,-21192,-30045,-2805,7656
1641,-17136,11728,-27188,-25037,-4117,6780
1663,-18960,12340,-30640,-19288,-2547,5156
1680,-18904,12332,-32032,-13845,-3027,2953
1708,-16412,12236,-32104,-8546,-5128,1308
1729,-12176,11524,-31196,-2906,-4624,994
1752,-7916,10188,-28080,2463,-3396,2265
1773,-4164,9564,-23124,6590,-4475,4856
1795,-724,9448,-18104,9466,-4750,8455
1817,1596,10140,-14220,11794,-1741,13127
1840,2020,11176,-13300,13384,-176,18136
1862,44,11796,-12852,15163,1661,22971
1884,-4648,12336,-12256,17004,4470,26256
1905,-11148,12760,-11768,18581,5889,27483
1928,-15868,12084,-9636,19804,3137,26808
1945,-19124,11536,-4348,20078,469,25309
1969,-23116,11668,1208,18300,2506,23019
1994,-27276,10920,4196,14825,2448,19875
2015,-32144,9492,3940,10842,2559,15435
2036,-32768,7580,1012,7706,3255,9467
2059,-32768,7732,-3512,6221,5439,1735
2079,-32768,11052,-7560,6002,5583,-8028
2102,-32768,13304,-11024,6432,2217,-18948
2124,-32768,16520,-13092,7623,300,-29116
2147,-32768,20328,-12836,8479,-4204,-32768
2162,-19224,20532,-9500,8322,-8713,-32768
2191,-3576,16020,-5748,6671,-8195,-32768
2211,7676,9640,-4292,4041,-6438,-32768
2235,13712,3916,-7292,1660,-4026,-27997
2256,13804,-324,-11372,847,457,-19352
2279,11200,-3544,-15868,1911,5036,-11826
2301,5780,-4544,-18948,4412,8142,-6415
2323,340,-5412,-19760,7690,7043,-3168
2345,-4952,-6500,-16164,11022,4765,-1356
2367,-10720,-6948,-8260,13295,3690,-983
2390,-15352,-7340,3708,12883,-504,-1633
2411,-18024,-7168,17180,8867,-7500,-2803
2434,-18660,-6252,32767,515,-13782,-4772
2456,-12668,-4460,32767,-12950,-18780,-5021
2468,-3336,580,32767,-28636,-19212,-1496
2500,2320,7896,28480,-32768,-10970,5528
2521,784,16400,13504,-32768,-2539,12634
2541,-6420,22900,-4884,-32768,1427,16436
2564,-13644,24808,-24944,-32768,-231,16331
2588,-20264,22904,-32768,-32768,-6034,14018
2601,-24192,20520,-32768,-27318,-7926,10732
2631,-24428,18472,-32768,-16293,-6166,6823
2652,-20708,17824,-32768,-7090,-8162,3358
2675,-14212,17688,-32768,159,-10454,1466
2697,-5204,16644,-30112,6439,-9990,2189
2719,4112,14460,-24232,11577,-9654,6088
2741,10404,13916,-17860,16089,-7819,12987
2763,11972,16112,-12068,19095,-6584,21167
2785,9772,19456,-8784,20919,-4773,28555
2807,4600,21852,-7600,22091,-1963,32767
2830,-728,23456,-7504,23205,-2492,32767
2851,-5464,25576,-5960,24588,-3481,32767
2874,-12464,27348,-3332,25507,-702,32767
2895,-22056,28696,-748,24875,2784,32767
2917,-32620,27400,1384,22604,2110,32767
2939,-32768,24400,3476,19511,273,25154
2961,-32768,21456,4932,15959,-713,14671
2983,-32768,19656,6108,12062,-2072,2926
3006,-32768,20072,4756,8431,-3489,-8976
3027,-32768,20416,-172,6071,-3564,-19605
3046,-32768,21092,-7804,6060,1111,-29128
3071,-32768,26056,-15216,8652,4433,-32768
3094,-32768,32448,-13072,11833,-2759,-32768
3115,-29420,32767,-6848,10973,-8766,-32768
3137,-16036,32767,-2472,8844,-8031,-32768
3156,-984,31572,-3432,4594,-11149,-32768
3181,14272,23292,-6076,-401,-15653,-32768
3203,27812,9896,-11724,-2803,-11966,-32768
3225,32767,-1420,-13784,-1311,-1554,-27650
3247,26696,-4928,-12064,447,5116,-13922
3269,17572,-4836,-12500,331,3322,-4267
3292,7292,-5004,-13728,1411,5439,1593
3312,-648,-5516,-13324,2654,7344,4145
3335,-5516,-6156,-11968,3670,6196,5247
3358,-8016,-7520,-8180,4529,2151,6180
3379,-12012,-8044,-2904,4835,1065,6526
3402,-15768,-8468,3600,3635,1160,5714
3423,-17784,-7988,10712,19,-1631,4283
3445,-16720,-7504,16876,-5365,-4848,3270
3467,-13392,-6400,20128,-12320,-6882,3691
3486,-10876,-3320,20460,-19421,-4783,5613
3512,-9680,1356,17520,-26925,-5698,8013
3534,-10176,6068,9812,-32768,-5444,10541
3556,-12500,10136,-2996,-32768,-1082,11682
3577,-14716,11464,-16324,-32768,2211,11006
3595,-16908,12252,-24300,-29409,-2279,9537
3622,-19272,12472,-28552,-23611,-5778,7754
3642,-19800,12764,-29288,-17476,-3627,5505
3656,-18064,13520,-29116,-12160,-2567,3601
3688,-15200,14372,-28820,-7771,-5556,2875
3709,-12200,13540,-28580,-3127,-6981,3149
3731,-8276,12332,-27456,2309,-3570,4281
3753,-4864,11776,-24556,7287,-2420,6491
3775,-2032,12240,-20540,11165,-4135,9536
3797,828,13168,-17256,14169,-4431,13246
3820,2760,13016,-15848,17313,-1214,17777
3841,700,13564,-13836,20302,3483,22434
3863,-3444,13936,-9972,21822,1608,25571
3885,-7360,14044,-4888,22166,-774,27353
3907,-12104,13944,-928,21434,2380,28311
3929,-17780,13096,1012,19389,4573,28317
3951,-25056,12788,2284,16929,4746,26481
3973,-32768,12332,3396,14314,6792,22267
3995,-32768,12236,2604,11113,8457,14306
4017,-32768,13072,984,7693,3929,2227
4039,-32768,15172,-1864,5112,1405,-11493
4061,-32768,18108,-7636,4267,1800,-24980
4084,-32768,23176,-14292,6209,2851,-32768
4105,-32768,31740,-13720,9150,-1888,-32768
4127,-20512,29556,-8216,7985,-13255,-32768
4150,-2984,25476,-4520,4379,-13168,-32768
4169,14224,18180,-3752,645,-9996,-32768
4190,25460,6996,-8792,-2848,-9166,-32768
4214,27732,-1172,-16156,-2929,-3085,-21736
4235,21740,-4840,-20672,570,8157,-10103
4257,11604,-5000,-21168,3951,11874,-2413
4279,4128,-5164,-20616,6607,7949,1534
4304,-1600,-6592,-17868,9854,5325,3808
4325,-7308,-7164,-9476,12583,6757,4756
4347,-13344,-7152,2536,12501,5623,4360
4369,-17812,-6964,15096,8129,-2253,2669
4391,-20012,-6768,24752,922,-8053,467
4413,-17564,-6200,32624,-8058,-8891,-1240
4436,-11872,-2920,32767,-19762,-12600,-1022
4457,-5188,2176,30024,-31205,-13843,2379
4474,-1548,8888,20784,-32768,-9857,8040
4501,-2032,15172,9128,-32768,-6212,13862
4524,-6548,20872,-4708,-32768,-5356,17865
4546,-12364,23804,-16736,-32768,-3310,19323
4567,-18044,24676,-26784,-32768,-3263,18230
4590,-23164,23376,-32768,-29168,-4679,15604
4611,-26036,22960,-32768,-20723,-7522,11620
4634,-24648,22336,-32768,-13092,-10010,7424
4651,-19216,21620,-32380,-6328,-10976,4357
4677,-10996,21084,-29860,-18,-11799,3748
4699,-3700,20084,-27372,6271,-12044,5939
4722,2056,18600,-25040,12735,-9758,10064
4741,5772,17456,-21484,18950,-7691,14963
4762,7692,18584,-15192,23471,-8167,19758
4787,9008,20652,-8044,26131,-9931,24512
4807,8200,21708,-1704,27245,-8757,29495
4830,2896,23128,3020,27118,-2073,32767
4853,-4640,25836,5124,25131,405,32767
4875,-15160,27172,4844,23098,1238,32767
4896,-27504,26552,4452,20916,3349,32767
4919,-32768,25332,4312,18222,5213,28035
4941,-32768,23696,4336,14472,2274,16419
4963,-32768,22848,4024,10690,-2752,2912
4978,-32768,23308,984,7715,-3163,-9693
5007,-32768,24212,-3912,6546,-1914,-20682
5029,-32768,26108,-9820,7654,1828,-30361
5052,-32768,30480,-12780,10867,3897,-32768
5074,-32768,32767,-11456,12777,-1065,-32768
5095,-31164,32767,-7496,12122,-7129,-32768
5117,-18396,32767,-4660,10162,-8766,-32768
5140,-2996,32767,-3396,6662,-11354,-32768
5159,11156,29364,-3412,2052,-14153,-32768
5183,23216,16748,-8564,-1986,-12860,-32768
5205,29940,4452,-13248,-1076,-1669,-32768
5223,28268,-3372,-14744,912,4401,-20636
5250,20452,-5380,-12904,2433,5527,-9150
5271,13232,-5036,-10856,2854,3969,-1782
5293,9060,-6300,-8160,3195,4054,3707
5314,3612,-7180,-3248,2799,4858,8023
5328,-2288,-7996,2632,1574,5191,11030
5358,-9424,-7592,11672,-797,3935,12547
5382,-15816,-5852,20724,-6125,-1522,12311
5401,-18444,-3604,25460,-13414,-3230,11049
5417,-18296,-344,24544,-21381,-1052,9807
5448,-17404,3760,18104,-29059,-2917,8958
5470,-16212,8480,7436,-32768,-6964,8543
5484,-16072,11632,-5100,-32768,-5752,8187
5514,-15284,13372,-15816,-32768,-2694,7577
5536,-15752,13816,-22560,-30633,-5090,7084
5557,-16980,15292,-25740,-25725,-6513,6511
5579,-17992,16196,-27364,-20569,-4627,5556
5602,-17196,17168,-29180,-15553,-4709,4371
5624,-15008,17272,-31420,-10046,-6298,3763
5645,-11448,16408,-32112,-3561,-6650,3921
5667,-6748,15540,-29904,3454,-5642,5465
5690,-3672,14732,-25188,9604,-4489,8340
5712,-1828,15668,-19332,14219,-4097,11560
5734,-184,16440,-14344,17324,-4795,15078
5755,1188,16484,-11500,19548,-4378,18840
5773,1112,16568,-8964,21649,-2532,22955
5796,-1044,17212,-5992,23024,-1613,26663
5821,-5336,17100,-2836,23331,-1854,29370
5843,-10492,16596,-544,23150,248,31018
5856,-18192,16668,856,22490,5453,31313
5887,-27560,17332,2352,20408,7230,28827
5909,-32768,15724,3756,17179,5645,22986
5931,-32768,14500,4052,13201,5266,14068
5953,-32768,14308,2524,9388,4693,3110
5975,-32768,15944,-84,6431,2507,-9118
5997,-32768,18304,-4196,5115,2504,-20889
6020,-32768,21868,-9004,5473,2884,-31973
6040,-32768,26576,-11488,6627,-1398,-32768
6063,-27632,31068,-10808,6964,-6964,-32768
6085,-10792,29912,-7792,6087,-8824,-32768
6107,5956,22164,-4660,3447,-10110,-32768
6129,19676,13208,-4096,-530,-10689,-32768
6151,23896,4740,-7384,-3190,-6188,-25774
6173,19976,-320,-12708,-2969,1876,-13965
6195,11240,-1968,-16092,-1127,7600,-5749
6218,2252,-2456,-18376,745,6365,-1448
6239,-5712,-2512,-18788,3349,5478,43
6262,-12072,-2780,-16800,5975,5250,-164
6284,-15188,-3720,-12052,8415,4720,-1589
6303,-15472,-5484,-3264,9012,1018,-2815
6318,-14976,-6168,7064,6880,-3231,-3500
6346,-12788,-6640,17060,2178,-5360,-3477
6371,-9068,-6592,24244,-5387,-7615,-2290
6391,-5620,-4892,27416,-14544,-9373,487
6414,-3880,-920,24944,-23465,-9464,4432
6435,-4808,4284,19484,-30260,-6757,8636
6458,-7412,9944,11572,-32768,-3297,11899
6479,-10424,15464,2736,-32768,-3700,13695
6503,-12852,19380,-7064,-32768,-6419,14450
6524,-16040,22112,-16844,-32768,-4977,14176
6546,-18980,22224,-26272,-31609,-3983,12599
6569,-20052,21812,-32472,-24877,-7352,10476
6592,-20128,22392,-32768,-17313,-10653,8558
6612,-18416,22140,-32768,-9132,-8203,6773
6635,-14524,22144,-32768,-789,-6734,5775
6657,-10192,21420,-31696,7035,-9049,5970
6678,-5212,20548,-26644,14019,-9287,7199
6701,248,19992,-20972,20069,-8213,9778
6722,4416,20296,-14912,24765,-7393,13828
6745,5876,21544,-8520,27785,-6592,18692
6767,4716,22208,-3380,29457,-5935,23511
6789,-1056,22220,-648,29781,-944,27765
6808,-7776,21664,-472,29755,1658,30496
6832,-15644,22248,576,29638,2205,31021
6853,-24868,22668,4780,28412,3917,29121
6878,-32768,21712,9376,24631,3141,24072
6895,-32768,18676,11352,19184,1147,16431
6912,-32768,16932,10784,13029,-1732,6861
6940,-32768,15552,6244,7974,-3301,-3316
6964,-32768,15084,-588,5430,-3353,-12323
6978,-32768,16304,-7484,5789,1973,-19991
7009,-32768,18768,-16336,8367,5221,-28236
7032,-32768,27908,-21924,12825,2710,-32768
7045,-32768,32724,-18336,16432,-7113,-32768
7076,-22196,32767,-10548,17924,-6397,-32768
7096,-8084,31844,-2096,16445,-6431,-32768
7119,7228,23364,4388,10025,-16672,-32768
7140,20224,12292,2064,2261,-21106,-32768
7163,29672,-480,-2808,-322,-8466,-30777
7185,29360,-7216,-3984,-1373,-284,-16604
7207,19276,-7024,-5652,-2607,3142,-5005
7228,6780,-6112,-7868,-3328,3972,1606
7251,-3756,-6560,-10532,-2818,2846,4316
7267,-12220,-6384,-10312,-999,2353,4260
7295,-16936,-6992,-6556,490,170,2214
7318,-19704,-7012,-796,357,-2464,-164
7339,-19948,-6388,4384,-1574,-3757,-1729
7362,-18312,-6480,8720,-4783,-4969,-2722
7384,-14036,-6312,12492,-8907,-6121,-2853
7405,-8912,-5256,16688,-14154,-8272,-1229
7424,-5508,-1744,20260,-20871,-10632,2648
7448,-5912,3768,19428,-28398,-7116,7780
7468,-9444,9428,9712,-32768,2226,11097
7490,-13624,13264,-752,-32768,3585,11419
7515,-16488,15840,-12016,-32768,-3330,10235
7536,-18440,16636,-22012,-32768,-6824,8573
7557,-18780,16620,-28728,-28407,-5858,6626
7580,-18184,15968,-32768,-21775,-4003,4913
7602,-16688,14556,-32768,-15388,-7248,3731
7625,-14608,12880,-31976,-8895,-7773,3341
7639,-11600,10524,-27936,-2597,-6469,3394
7668,-7040,8368,-20208,2155,-8850,4046
7692,-2592,7300,-10996,4768,-10005,6207
7706,-200,8088,-5120,5285,-7905,9859
7735,-200,10072,-4856,5070,-6689,14155
7756,220,12756,-8992,5975,-7640,17807
7774,2496,16024,-14512,9039,-7813,21825
7801,-2244,20616,-19368,13871,-702,26138
7823,-10148,24600,-22612,18695,128,27672
7845,-16800,24568,-22856,24422,-5320,26112
7867,-20140,23940,-17472,30394,-5385,22684
7889,-22516,24272,-7916,32767,-862,19529
7911,-24852,23880,2672,32767,-682,16695
7934,-26588,20960,11996,30250,-2067,13679
7955,-29336,16280,16820,24641,578,10734
7973,-32676,12976,16572,18274,1183,6853
7999,-32768,11012,13820,12618,1022,1178
8022,-32768,11348,8916,7765,1158,-6962
8043,-32768,13504,1896,4848,1882,-16798
8063,-32768,18040,-6124,3863,314,-28083
8086,-32768,23232,-11544,4848,-3381,-32768
8109,-29380,25828,-11716,6061,-7836,-32768
8131,-12864,25436,-9040,6695,-7661,-32768
8153,4864,17664,-3720,4929,-10560,-32768
8174,19156,8988,-676,412,-13809,-32768
8196,24904,924,-1984,-3435,-10173,-24129
8218,23416,-3768,-5132,-4902,-1339,-11341
8241,12644,-3928,-8296,-5073,5198,-1585
8263,-592,-2040,-13576,-4726,7076,2968
8278,-9148,-1552,-19804,-2438,5256,3669
8307,-14688,-1700,-21868,1782,3700,2794
8329,-18428,-2016,-19496,5989,3402,970
8351,-20824,-2224,-15032,9001,3361,-1372
8372,-20844,-3424,-7620,10575,1679,-3762
8390,-17056,-4980,3272,10120,-2158,-5379
8418,-13000,-5952,16464,6531,-5238,-5513
8439,-7292,-7112,26924,-932,-5912,-3623
8461,-2244,-6164,32767,-10561,-3960,420
8480,-916,-2260,31480,-21682,-3214,5572
8505,-3260,3288,20616,-29680,1253,9889
8526,-7116,7876,8648,-32768,2620,12630
8545,-13572,11232,-3380,-32768,-760,13560
8571,-18604,14556,-14760,-32768,-2179,12347
8592,-21196,14832,-25072,-28854,-1623,9933
8615,-21708,13284,-31576,-22363,-2117,6909
8635,-19876,13520,-32212,-15660,-4171,4436
8651,-17068,13516,-30624,-9824,-3936,3275
8681,-13988,13876,-29680,-4632,-3729,3033
8703,-10740,13876,-29448,853,-1722,3773
8723,-8224,13452,-27760,6458,-1150,5298
8747,-5560,12932,-24168,11694,-1276,7355
8769,-2784,13860,-18880,15817,-1414,10187
8791,-2692,15112,-14348,18619,-905,13665
8813,-5704,15708,-11824,20562,1997,16358
8835,-7748,14384,-10448,21916,833,17889
8857,-8964,13040,-8404,22946,-1058,18740
8879,-11624,11424,-4972,23717,361,19496
8901,-17092,10852,-980,23794,3272,19619
8923,-23692,9104,3180,22433,3744,18397
8940,-30588,8296,7388,19525,4657,15232
8968,-32768,7716,9468,15173,3787,10074
8989,-32768,7872,8888,10672,1915,2469
9011,-32768,7828,6552,6683,-1032,-6306
9033,-32768,8664,3588,4021,-1135,-14334
9051,-32768,9924,-128,2241,-523,-21508
9078,-32768,12296,-4196,1241,-1622,-28048
9099,-29300,15272,-6332,159,-6610,-32768
9118,-17764,14880,-7168,-1238,-9788,-32768
9142,-6404,11192,-10684,-1334,-5206,-32768
9156,1532,7336,-13492,-223,-1097,-30147
9186,6432,3740,-16448,859,-1461,-24088
9208,6508,-456,-19204,2673,147,-17396
9230,1044,-3064,-20768,6045,6040,-12117
9253,-5636,-4068,-19668,9760,8087,-9675
9275,-9352,-4784,-15016,13083,4652,-9327
9297,-10460,-5948,-7600,15129,428,-9756
9319,-11160,-8048,3976,15182,-1660,-9796
9341,-11592,-7944,18060,12211,-5732,-9641
9362,-9600,-8084,32767,4412,-12118,-8813
9385,-3624,-7900,32767,-8354,-16563,-6304
9407,3968,-4816,32767,-23191,-14952,-619
9429,7604,2604,32767,-32768,-8097,7487
9451,4352,12508,26024,-32768,-1193,15158
9473,-3312,19992,11152,-32768,2122,19390
9495,-10724,24896,-5152,-32768,-1173,19960
9518,-16756,25980,-19324,-32768,-4942,18285
9540,-21028,24956,-29856,-32768,-7211,15756
9561,-22316,23924,-32768,-32140,-8499,12499
9579,-20976,21792,-32768,-24184,-9515,9810
9601,-18380,21180,-32768,-17046,-10841,8025
9623,-15856,19664,-32768,-9505,-10626,7207
9647,-13124,17368,-32768,-1122,-10181,6531
9670,-8532,16472,-32768,7291,-10578,6438
9693,-2868,17892,-25612,14367,-10365,7987
9714,2476,19620,-17904,18996,-11643,11622
9737,5796,21112,-12764,21373,-13995,16342
9758,4104,22724,-10156,23781,-10475,20919
9781,1320,24624,-8880,25980,-9976,24277
9801,-408,26432,-7828,28318,-12847,26454
9825,-3236,27332,-5600,31084,-10397,28065
9847,-8988,29100,-2920,32767,-5098,28809
9869,-14240,29860,-288,32767,-3999,28325
9891,-19808,29840,5056,32767,-2509,26726
9912,-28408,28236,12124,32767,1102,23753
9935,-32768,25452,18008,28220,541,18571
9957,-32768,22140,21784,21859,-3287,10898
9979,-32768,19088,22780,14634,-6140,1670
10001,-32768,17096,21992,7605,-8535,-6629
10023,-32768,15736,17624,1253,-9662,-13338
10045,-32768,15164,7592,-2946,-8411,-18490
10067,-32768,16172,-5108,-3280,-3052,-23075
10089,-30792,17268,-12680,83,2535,-27456
10112,-32428,18404,-14396,4420,5775,-31384
10134,-32768,22540,-11832,7469,5525,-32768
10155,-32768,30564,-9088,8602,994,-32768
10168,-31148,32767,-6972,6788,-9474,-32768
10199,-14964,32767,-7664,3500,-15318,-32768
10218,116,26132,-9312,2868,-6598,-32768
10241,12452,16396,-7416,2855,-2673,-32768
10265,23508,3528,-7768,75,-10250,-32768
10280,28212,-5036,-10000,-299,-7508,-25130
10308,21888,-8232,-7348,536,-1248,-12927
10330,12084,-8048,-4304,-830,-230,-5254
10351,6720,-8664,-5496,-2197,-402,-569
10375,2304,-9660,-5756,-1289,3545,2728
10390,-1416,-9900,-2400,-825,1839,4558
10419,-6512,-9324,2712,-837,-2570,5713
10441,-8556,-9408,8648,-2248,-5554,5760
10463,-8412,-9192,15748,-5133,-5279,6314
10479,-8176,-7868,20952,-10504,-5643,7868
10507,-8828,-5088,23252,-17108,-5513,9912
10528,-8920,-840,23428,-23973,-4620,12093
10551,-7428,4564,21748,-31068,-2552,14625
10573,-5960,10960,15348,-32768,590,17497
10595,-7072,16656,4512,-32768,4231,19746
10618,-7364,20144,-7356,-32768,4669,20933
10639,-10496,20704,-18240,-32768,510,21456
10662,-15148,20592,-24852,-32768,-2642,20930
10680,-19860,20420,-27904,-27143,-1475,18972
10704,-22684,20736,-28260,-21186,-1493,15631
10724,-23272,20012,-28444,-16333,-5183,11708
10741,-21452,19112,-28424,-11553,-8226,8170
10771,-18352,18176,-28368,-6093,-8949,5691
10791,-14708,17384,-27204,-206,-10366,4460
10807,-11112,16504,-23996,5492,-12121,4402
10836,-7292,16184,-18816,10374,-13394,5155
10851,-4760,16072,-14216,14234,-12578,6723
10881,-2576,16312,-10400,16781,-12099,8561
10904,-724,16556,-8008,18435,-14033,10814
10925,444,16780,-5956,19878,-15643,13320
10948,-1304,16748,-4296,21761,-11611,15997
10968,-3576,17124,-4240,23569,-6428,18227
10990,-5944,17828,-4052,25120,-5903,19922
11012,-9988,18244,-2836,26694,-4362,20979
11035,-14588,18800,-1664,28253,-101,20980
11057,-20356,19412,364,29348,4462,20293
11079,-26824,19884,3956,28407,4890,17811
11101,-32768,19584,8528,25558,4231,13308
11124,-32768,18504,11716,21061,2563,7133
11145,-32768,17260,12068,15808,916,-296
11168,-32768,16204,10144,10564,-1539,-8716
11189,-32768,15676,5864,6221,-3699,-17068
11211,-32768,16192,600,3894,-3076,-24509
11231,-32768,19052,-4936,4387,1236,-31288
11252,-32768,21856,-8144,6326,2505,-32768
11268,-30324,25204,-6632,7504,-1067,-32768
11300,-21704,25608,-2616,5222,-10124,-32768
11321,-13860,23940,-3828,285,-16328,-32768
11343,-4604,22824,-9112,-1462,-10894,-32768
11365,6064,15808,-10564,-441,-5748,-32768
11387,14932,6724,-10912,-1167,-9790,-32768
11410,18720,-200,-12464,-1623,-9629,-25211
11431,16716,-4704,-13064,-151,-3924,-14344
11453,10800,-5716,-10968,1676,2411,-5835
11475,4660,-6616,-8004,2218,3055,14
11498,-1100,-6652,-6096,2018,1280,3342
11519,-4672,-6916,-5412,1802,392,5071
11540,-8020,-7540,-4004,2171,2808,6098
11562,-11636,-8144,-1068,2025,3379,6229
11585,-14716,-8264,2984,1361,1872,5687
11607,-17172,-7252,11680,-51,1063,4806
11629,-17128,-6156,22336,-4748,-1179,4010
11651,-14224,-4348,27036,-13120,-3716,4176
11673,-10132,-944,25492,-21817,-1477,5735
11694,-7436,3420,17504,-29143,3225,8365
11717,-7088,7724,7244,-32768,3474,10850
11739,-8784,11360,-4916,-32768,392,12678
11761,-12300,12908,-17464,-32768,485,13456
11784,-15220,13308,-27260,-29262,1408,12797
11802,-17944,13116,-32180,-22619,-922,11161
11827,-19680,12824,-32452,-16018,-4215,8936
11849,-20064,12444,-30812,-10147,-3761,6430
11871,-18288,11832,-29324,-4917,-2403,4356
11893,-15140,11456,-27500,-235,-3790,3279
11915,-11072,10660,-24068,4195,-4755,3431
11937,-7696,9812,-20108,8085,-3977,4906
11958,-6020,9708,-16280,11441,-1651,7202
11981,-4752,10548,-12744,13646,-1343,9719
12004,-3356,11120,-10044,14640,-3658,12593
12025,-2940,11440,-9440,15524,-3630,15807
12047,-5252,11824,-10976,17475,1733,18783
12069,-9468,12604,-11456,19582,3387,20574
12091,-13468,12828,-9212,21169,717,20917
12113,-16704,12484,-5204,21802,-215,19997
12135,-20324,12168,-2504,21454,2515,18610
12158,-23628,11256,-868,20299,3265,16380
12179,-26400,10160,1812,18353,953,13578
12201,-29824,8960,3760,15738,953,9988
12218,-32768,7448,2844,12934,2082,5418
12245,-32768,7140,1076,11240,3692,-415
12267,-32768,7764,668,10060,3261,-7214
12287,-32768,9536,552,8834,2912,-15019
12310,-32768,11980,1488,7419,1050,-23257
12333,-32768,14548,5080,4476,-4506,-30744
12354,-28656,16780,7732,-1071,-10687,-32768
12374,-16348,15416,5724,-7658,-14580,-32768
12399,-5572,13368,-124,-12430,-13962,-32768
12420,3892,9408,-6992,-14905,-12905,-31795
12443,8168,4964,-15780,-14527,-7876,-24616
12462,8284,1120,-24632,-10169,1299,-17272
12485,5564,-824,-28840,-3978,7349,-11289
12509,2272,-2088,-27704,1317,5222,-6733
12531,-1596,-2696,-23764,5409,3404,-3431
12551,-5160,-3596,-19236,8837,5629,-1131
12574,-8652,-3840,-14104,11484,9099,239
12597,-10428,-4980,-7300,12465,8498,1067
12619,-12008,-5800,560,11766,4935,1654
12642,-13244,-6592,8676,9353,2170,1918
12663,-15252,-6556,16592,4849,1118,1769
12685,-14680,-6720,22196,-2226,-1342,1192
12707,-11656,-5636,23948,-10552,-4599,1340
12729,-8280,-3728,21936,-18598,-7526,3125
12750,-6160,-276,16520,-24798,-6869,6127
12774,-5736,3756,9444,-28675,-3764,9463
12795,-7756,7080,2868,-31054,-2552,12264
12818,-11068,9628,-1552,-31861,-3362,13529
12839,-14584,11908,-6116,-31544,-2849,13542
12862,-15664,14876,-11428,-30467,-2971,12972
12884,-17280,15564,-18092,-28125,-4254,11991
12903,-18036,15820,-23520,-23844,-3492,10613
12928,-18248,15968,-27444,-18489,-2917,9267
12948,-18828,16252,-30028,-12342,-3017,7932
12962,-18556,15824,-30860,-5908,-2951,6431
12990,-16824,16300,-29580,561,-2811,5059
13013,-13740,16404,-26900,6379,-3549,4348
13028,-10440,15728,-22928,11352,-4020,4541
13059,-7172,15180,-18676,15494,-3685,5588
13082,-4584,15020,-14540,18791,-2878,7585
13103,-2600,14872,-10860,20851,-3347,10235
13123,-1616,14500,-7772,21939,-4409,13412
13147,-2760,13832,-5708,22826,-2869,16474
13169,-5892,13012,-4268,23448,-328,18930
13191,-8624,13068,-2740,23666,-96,20687
13213,-13944,13540,-740,23604,2566,21632
13235,-20020,13828,808,22063,3830,20958
13255,-26396,12584,1056,20257,3807,18538
13279,-32768,11284,1432,18508,5242,14319
13301,-32768,11328,2936,16463,4663,8436
13322,-32768,11592,6608,13681,2458,1149
13345,-32768,11592,9272,9249,-221,-6400
13367,-32768,11460,7808,4430,607,-14084
13390,-32768,13364,1952,981,1589,-22755
13412,-32768,18872,-3976,199,-8,-31945
13433,-32192,20404,-3844,-609,-6072,-32768
13455,-20844,21288,-3696,-3080,-9774,-32768
13477,-6524,20204,-6072,-5511,-10348,-32768
13497,7188,12892,-8488,-7012,-8357,-32768
13521,15588,7664,-10948,-8202,-8766,-28428
13543,16436,2188,-16208,-7955,-6255,-18140
13565,11664,-576,-20492,-4693,1988,-9594
13587,4436,-2044,-21744,-644,7681,-3635
13601,-4060,-2360,-21556,2731,6581,-790
13631,-11908,-2044,-19884,6035,5675,-523
13651,-16496,-1920,-17660,9283,6529,-2021
13675,-17392,-2968,-13736,11956,6649,-3865
13698,-16984,-4552,-9068,13423,4696,-5443
13720,-16352,-5920,-3784,13730,1744,-6642
13741,-14856,-6284,2092,13412,-12,-7638
13763,-12044,-6948,10584,11573,-2020,-7848
13784,-7928,-7472,22440,6251,-6696,-6998
13807,-2980,-7148,32767,-3063,-11581,-4079
13829,1540,-5376,32767,-15209,-11704,1321
13852,2348,692,32767,-27886,-6761,8184
13873,-100,10068,31584,-32768,-70,13906
13895,-3408,19148,20764,-32768,3776,17669
13917,-8264,25828,5412,-32768,2355,19523
13938,-13320,29316,-10360,-32768,-1380,19258
13961,-18872,28704,-24852,-32768,-1700,17311
13983,-22200,25940,-32768,-32768,-3940,13818
14003,-22484,24432,-32768,-29552,-7075,10257
14024,-20804,23408,-32768,-21277,-7250,7719
14049,-19040,21476,-32768,-13214,-6229,5800
14071,-15920,19352,-32768,-4939,-6243,4174
14090,-11408,18232,-32768,3143,-8087,3164
14106,-6048,17828,-29168,10409,-9446,3525
14137,-1360,18188,-22504,15996,-9805,5482
14158,2176,18972,-16608,20039,-9674,8642
14181,4696,19520,-11684,22679,-10894,12593
14203,5296,20404,-7472,24502,-11476,16908
14223,3220,21816,-3244,25553,-11114,20876
14247,780,22200,-736,26103,-11384,23998
14268,-1644,22828,1104,26361,-10652,26438
14291,-6704,23764,2336,26840,-4350,28648
14313,-12728,24672,2828,26649,-1577,29448
14335,-19596,24040,3660,26418,-180,28535
14358,-26752,23412,5304,24704,2617,25319
14379,-32008,21592,5576,21768,1998,20098
14401,-32768,19584,5796,18459,165,13505
14423,-32768,17844,6500,15156,-1557,6439
14445,-32768,16808,7280,11682,-3400,-324
14468,-32768,15996,7268,8342,-4284,-6615
14490,-32768,15684,5448,5698,-994,-12674
14512,-32768,17888,1276,3690,1155,-19864
14532,-32768,22408,-3612,2677,918,-28423
14554,-32768,26576,-7208,2523,-819,-32768
14576,-32768,29800,-10828,3031,-1702,-32768
14599,-32768,32767,-13288,4837,-654,-32768
14621,-27256,32767,-13048,6327,-4417,-32768
14643,-11116,32767,-11404,4971,-13365,-32768
14665,3572,32644,-11424,2798,-13306,-32768
14687,16992,20528,-10268,1600,-8312,-32768
14709,25584,8004,-10264,181,-6051,-32768
14730,26880,-260,-11376,-714,-3855,-27051
14754,21812,-4344,-11316,-339,411,-15594
14775,12712,-5292,-11072,333,3393,-7750
14797,5632,-6248,-10628,940,4315,-3592
14819,2232,-7532,-10304,1817,3104,-1018
14841,220,-8892,-10240,2959,1201,1323
14857,-2228,-9324,-8172,4110,1165,3292
14886,-4900,-10288,-4768,4596,769,4466
14907,-6736,-10528,-716,4244,-1002,5017
14929,-7364,-10592,4928,3108,-3323,5365
14951,-6592,-10492,11456,446,-5116,6445
14973,-6748,-9684,18912,-4025,-5806,8505
14993,-8176,-7488,24128,-10767,-6105,10802
15017,-10116,-3212,25572,-18590,-2899,12843
15039,-10744,2016,23280,-26618,-240,14212
15061,-10176,7240,17660,-32768,-593,15599
15084,-10536,11784,8884,-32768,-39,17323
15101,-12616,16020,568,-32768,1678,18221
15124,-15568,18948,-7504,-32768,-2282,17914
15149,-18324,20688,-15040,-32768,-4771,16792
15169,-21692,20692,-21548,-32768,-4595,14434
15191,-23340,19576,-26652,-28780,-3992,11004
15214,-23356,18608,-29352,-22975,-6991,7756
15237,-22540,17940,-30036,-17131,-9309,5001
15259,-20588,16800,-30632,-11069,-8410,2713
15280,-17176,15836,-30572,-4538,-7341,1141
15301,-13300,14852,-28644,2133,-7906,661
15324,-8852,14328,-23916,8220,-8957,1301
15346,-5620,14248,-18520,13105,-8321,3050
15368,-3104,14716,-13704,16637,-7285,5454
15390,-792,15120,-10100,18936,-7950,8501
15412,776,16060,-7660,20305,-10337,12038
15435,24,16512,-6388,21944,-8734,15846
15457,-3556,17740,-6460,23798,-2059,19142
15479,-7024,18756,-8148,25741,-1124,21270
15501,-9924,19544,-7404,28297,-3434,22377
15524,-13120,19976,-3692,30357,-2082,22595
15545,-17056,20084,-304,30649,2465,22283
15562,-20568,19616,1884,29189,3746,21072
15589,-23592,18476,4568,27027,1784,18773
15612,-26760,16612,7896,23846,1169,15545
15634,-30552,14308,10264,19817,2432,11284
15646,-32768,13356,10768,14938,1724,5868
15677,-32768,12456,10200,9892,-761,-420
15699,-32768,12764,7896,5701,564,-7285
15718,-32768,13620,3900,2867,2548,-14856
15743,-32768,16660,-452,1697,4746,-23802
15765,-32768,22380,-3480,1182,2602,-32768
15786,-32768,27148,-4284,-346,-4033,-32768
15809,-30312,30916,-6068,-2536,-8031,-32768
15830,-16372,32720,-9720,-3903,-10241,-32768
15853,-4,26900,-10900,-4846,-13173,-32768
15874,15564,16884,-11276,-6757,-16346,-32768
15896,26160,5164,-14968,-6654,-9885,-32768
15919,27200,-1496,-16368,-4006,892,-18398
15940,19916,-3592,-14676,-1797,6504,-6149
15963,10628,-3352,-14824,-813,6896,1601
15985,2544,-3748,-16376,492,6029,5714
16007,-4904,-3920,-17076,2705,6680,7108
16029,-8900,-5432,-15996,5971,8083,7055
16051,-11276,-6696,-10812,8925,8616,6617
16073,-13804,-6960,-2456,9615,5670,6168
16095,-16892,-7124,7976,7684,1569,5232
16118,-17708,-6448,17956,3449,-1142,4139
16139,-16880,-5240,27228,-3665,-1907,3428
16159,-15588,-2256,32564,-13653,-2855,3799
16181,-14684,2376,29588,-24528,-2686,5044
16204,-13536,7696,20588,-32768,-1156,6454
16223,-13224,12200,6904,-32768,-687,7749
16249,-14736,16552,-6276,-32768,-3023,8081
16268,-15932,18044,-17968,-32768,-4491,7829
16291,-17108,18084,-25444,-32768,-3424,6912
16308,-16668,18292,-30128,-26944,-3704,5926
16337,-15944,17524,-32768,-20453,-4014,5196
16356,-14688,16088,-32768,-13670,-4697,4473
16381,-11972,15732,-32340,-7195,-5404,4188
16403,-9032,15160,-30668,-995,-4578,4766
16424,-6884,14560,-28472,4920,-3735,6132
16447,-5448,14464,-25240,10460,-3891,7840
16468,-4048,15068,-21072,15423,-4031,9736
16491,-2196,15972,-16448,19159,-5089,12091
16513,-1284,17076,-12560,21608,-5364,15073
16535,-3432,17560,-10064,23712,-1058,18009
16557,-6548,17288,-8192,24894,-703,19975
16578,-8912,16964,-5912,25802,-2650,21186
16601,-11676,16188,-3064,26260,-2327,21796
16622,-14592,15768,-564,26148,921,22078
16645,-17880,16172,2028,24942,2642,21843
16668,-21392,15320,5016,22317,1162,20468
16688,-25168,13564,7316,18619,269,17902
16711,-28992,11348,7472,14659,1157,13908
16733,-32768,9764,6184,11170,2983,8787
16755,-32768,10248,4852,7812,1863,2191
16777,-32768,12840,2732,4985,1632,-5882
16799,-32768,15608,-1536,3004,2028,-15644
16820,-32768,19132,-7044,2301,-223,-26392
16840,-32768,23464,-11232,3212,-2311,-32768
16865,-31644,27508,-11224,4113,-6734,-32768
16887,-17404,27424,-7548,2917,-13368,-32768
16908,-2572,22112,-4992,-583,-16283,-32768
16924,11340,13216,-5824,-3797,-12071,-32768
16953,19848,5096,-9132,-5282,-5272,-29151
16975,20840,-968,-12512,-5230,-1871,-17321
16997,15464,-3540,-13776,-3656,1491,-7079
17019,5820,-3576,-13648,-1673,6577,-378
17034,-2512,-3160,-13092,-369,7969,2765
17063,-9140,-4016,-13504,766,5318,3584
17085,-14224,-4820,-12104,2816,5256,2479
17106,-17212,-5476,-7208,4466,4812,514
17129,-17308,-5528,396,4551,2258,-1434
17151,-15456,-5428,8984,2006,-2110,-2434
17172,-13220,-5264,16356,-2780,-4387,-2115
17190,-10724,-4012,21212,-9435,-3621,-758
17217,-9152,-1128,21324,-17272,-2586,1486
17239,-8820,2388,17124,-24464,-1663,3793
17262,-8764,6744,10572,-30402,-1534,5934
17279,-9560,10184,1208,-32768,-1907,7598
17303,-11012,12792,-6636,-32768,-3059,8418
17325,-12468,14900,-14184,-32768,-4966,8611
17346,-13544,15732,-21584,-30864,-4596,8333
17369,-13272,15772,-26900,-25647,-3807,8000
17391,-13076,16076,-29560,-19610,-4374,7998
17413,-12952,16244,-30328,-13519,-5339,7985
17429,-12184,16556,-30012,-7405,-5324,8036
17459,-11064,16560,-29392,-1303,-5009,8364
17481,-9916,16060,-27712,4694,-5443,8936
17503,-8564,15632,-24468,10205,-6417,9613
17525,-6544,15916,-20416,15165,-6633,10514
17547,-4184,16772,-16180,18967,-7665,12101
17570,-2564,17340,-12396,21780,-7781,14340
17590,-3136,17372,-9412,24005,-4727,16974
17613,-5532,17432,-7072,25434,-1600,19121
17635,-8012,16716,-4948,26307,-2308,20547
17657,-10996,16224,-2896,26781,-1737,21413
17679,-15536,16300,-732,26988,3165,21763
17701,-21284,17084,1120,25746,6061,20951
17723,-27252,16360,3024,23204,5056,18094
17744,-32196,14444,5504,19914,3356,13372
17768,-32768,13364,7424,16163,3457,7177
17789,-32768,13208,8956,11936,1428,-90
17812,-32768,14160,9572,7427,1376,-8090
17829,-32768,15716,6504,3026,2819,-17318
17852,-32768,19428,564,-31,468,-27896
17874,-32768,23356,-5388,-1209,-2409,-32768
17899,-29504,25780,-7512,-1553,-6827,-32768
17918,-17720,24784,-8984,-2785,-9983,-32768
17940,-5876,22756,-11244,-3329,-7752,-32768
17956,6356,17224,-13672,-3826,-8300,-32768
17987,14636,8472,-16636,-3777,-7336,-32768
18008,15952,2292,-20560,-1242,135,-24312
18031,12288,-1244,-21812,2663,7886,-15716
18053,6616,-2488,-20468,5557,8362,-9629
18074,1940,-3268,-19200,7512,5360,-5927
18097,-1932,-4924,-17908,9900,5126,-3287
18119,-5196,-6048,-15652,13102,8710,-1405
18140,-8784,-6704,-9700,15627,9400,-67
18162,-12720,-7028,-484,15826,4099,152
18186,-15296,-7196,8620,13361,-3361,-821
18207,-15688,-7380,17404,8927,-8006,-2421
18229,-13444,-7420,26540,1850,-11311,-3569
18251,-8064,-7412,32767,-7816,-13327,-2653
18272,-2380,-4588,32767,-19202,-14294,943
18295,724,736,30996,-29758,-11023,6921
18317,-128,8820,24104,-32768,-3738,13107
18340,-3284,17188,14560,-32768,2397,17600
18362,-6812,23632,3700,-32768,2360,19741
18382,-11652,27692,-9444,-32768,-2817,20447
18403,-16796,28832,-22816,-32768,-3212,19205
18427,-20688,25164,-32768,-32768,-4068,16249
18449,-22868,22568,-32768,-30140,-8524,12748
18471,-22984,22500,-32768,-21553,-10648,9272
18493,-20336,22460,-32768,-14149,-10404,6361
18513,-16092,21908,-32768,-6635,-10170,4723
18529,-11604,20640,-32768,1293,-11070,4450
18559,-7352,19076,-32768,9606,-10944,5356
18581,-3528,18732,-28132,17638,-9552,7121
18603,164,19908,-21068,23849,-10175,9625
18625,3268,21552,-13332,27832,-12088,12888
18640,4648,22740,-7868,30086,-11311,16683
18669,3216,23124,-3772,31637,-6338,20909
18691,-764,24088,-1516,31836,-3154,24707
18713,-5652,23888,-1328,32081,-3282,27387
18735,-13860,24612,172,32767,3368,28667
18756,-22584,24876,2960,32767,6707,27973
18778,-32124,25208,7604,30440,5478,24620
18800,-32768,22664,12352,25745,3740,17783
18823,-32768,19124,14816,19114,1390,7888
18845,-32768,17736,15848,11952,-4225,-3626
18867,-32768,17928,13784,5484,-6081,-14188
18890,-32768,18804,7956,1070,-3220,-23370
18912,-32768,20820,-1628,-797,-1118,-31893
18930,-32768,24712,-9336,-28,-147,-32768
18954,-31436,27448,-12336,1731,-2464,-32768
18977,-22844,29000,-12048,3134,-3350,-32768
18999,-13052,29884,-10972,3912,-3760,-32768
19019,-1060,24824,-9356,2293,-9581,-32768
19042,11932,16688,-10948,-272,-11552,-32768
19065,22004,6716,-13912,-757,-6045,-32768
19086,24884,-1128,-14892,728,652,-24043
19107,19524,-4668,-13124,2095,4153,-13347
19131,11376,-6180,-11324,2692,4769,-5895
19153,4508,-7636,-11204,3087,4293,-1264
19174,-2136,-8616,-10268,4172,5308,1167
19196,-7832,-9296,-7348,5420,4882,1793
19218,-11660,-9524,-2224,5897,2499,1189
19241,-13924,-9432,3692,4810,-1271,192
19263,-14616,-8728,10424,2123,-4034,-826
19285,-13940,-8360,16748,-2293,-5462,-933
19306,-12044,-7420,22564,-8527,-5812,-80
19329,-9536,-5128,26008,-16886,-7385,1772
19351,-7684,-364,26052,-25947,-6745,4569
19373,-6552,6196,21548,-32768,-4875,8024
19395,-6480,12444,10584,-32768,536,11390
19418,-8148,17564,-1008,-32768,2318,13374
19440,-11124,20668,-13036,-32768,-1372,14333
19459,-15008,20600,-23764,-32768,-3567,13921
19483,-18224,19828,-30944,-32768,-5107,11921
19502,-19860,18768,-32768,-26970,-6076,9202
19525,-19336,18160,-32768,-20071,-9520,6455
19541,-17140,18132,-32768,-13231,-11287,4617
19571,-13912,17312,-32768,-6014,-9083,3880
19593,-10116,15804,-32768,1402,-8597,4076
19613,-6720,14568,-29512,8465,-9706,5222
19629,-3168,14564,-23352,14345,-10396,7151
19659,-88,15428,-17248,18702,-10686,9968
19680,2048,16560,-12184,21445,-11417,13463
19703,2340,17448,-8632,23529,-9926,17447
19725,208,18708,-7028,25082,-6467,21150
19747,-2588,20032,-6500,26635,-4041,24211
19762,-5840,21172,-5336,28191,-3694,26405
19792,-9572,22116,-3312,29437,-2797,27600
19813,-14272,22256,-836,29859,904,27975
19830,-18776,21800,1532,28747,1441,27066
19857,-23160,21196,3912,26537,1305,24996
19878,-28124,19520,6160,23543,2089,21469
19901,-32768,17116,8132,19614,1765,16174
19923,-32768,14888,9592,15045,11,9207
19944,-32768,13240,10324,9769,-2972,1276
19968,-32768,12572,8444,4897,-3030,-6339
19990,-32768,12892,4220,1568,-411,-13117
20012,-32768,15204,-1240,149,1994,-19542
20029,-32768,17116,-6272,992,6070,-25450
20056,-32768,21164,-8548,2817,7269,-32039
20073,-32768,23352,-7324,3537,2871,-32768
20099,-28220,26060,-5348,2508,474,-32768
20118,-20400,28004,-4564,-83,-4755,-32768
20134,-9416,27524,-6236,-3819,-12502,-32768
20165,3864,21212,-9164,-7016,-15999,-32768
20187,15460,13732,-11796,-8865,-15010,-32768
20209,22464,4928,-16208,-8776,-11026,-29579
20230,22240,-1452,-19568,-6088,-4124,-17873
20252,16864,-4220,-19864,-2471,3241,-7633
20275,8160,-4184,-18364,69,6366,-576
20296,1344,-3448,-18080,1405,5836,3451
20319,-3652,-4252,-19792,3327,5789,6023
20341,-8836,-5344,-20192,6909,8962,7802
20363,-14812,-4808,-15516,10182,11205,8018
20385,-19852,-5060,-8204,11455,8065,6729
20408,-22048,-5584,-1256,10652,2301,4169
20429,-21656,-6644,4244,8845,-753,1450
20451,-21400,-6600,9324,5640,142,-859
20470,-19968,-6044,12516,676,266,-2736
20495,-17284,-5316,11468,-5043,-919,-3831
20517,-14324,-5480,8464,-9592,-1712,-3579
20540,-12904,-4224,6120,-13436,-1812,-2912
20562,-11836,-2816,3888,-16419,-489,-2213
20580,-10992,-912,2080,-19387,-814,-1389
20603,-10296,600,-364,-21795,-2089,-392
20624,-9932,1676,-1372,-23679,-3975,593
20647,-9504,3052,-1328,-25248,-5325,1585
20669,-8060,5456,-860,-26784,-6098,2829
20693,-6412,7404,-1932,-28778,-7846,5012
20715,-6884,9492,-5492,-29781,-7026,7723
20737,-8852,11420,-10004,-29276,-3722,9768
20758,-10924,13132,-14740,-27362,-1146,10867
20781,-12712,14684,-18164,-24656,-2472,11345
20801,-15284,14944,-21116,-21447,-6180,11044
20825,-16556,16212,-23480,-17378,-7758,9779
20847,-15268,16564,-25884,-12670,-7442,8384
20868,-13360,16288,-27260,-7506,-9159,7541
20891,-10816,15408,-27160,-2016,-12335,7230
20913,-7476,14436,-25852,3962,-13397,7529
20935,-4108,14408,-22936,9889,-13364,8771
20957,-1556,15336,-18992,15034,-13869,10687
20979,-92,17220,-14472,18985,-14162,13087
21001,796,18756,-10544,21799,-14463,15582
21023,832,20220,-7792,23771,-14620,18230
21040,-448,21612,-5660,25837,-11967,20895
21067,-3540,22940,-4160,27542,-8848,23090
21090,-7264,24304,-3420,28570,-8057,24145
21110,-10512,25108,-2464,29373,-7919,24040
21133,-14328,25752,-1172,29992,-5338,23007
21155,-18180,25508,1124,30193,-4187,21201
21176,-22316,24456,5128,29146,-4107,18378
21199,-26924,21892,8032,26495,-1941,14413
21221,-29820,18780,10120,22727,-1852,9289
21234,-30360,17128,12924,18630,-4072,3869
21265,-31256,15688,16128,14302,-3194,-898
21285,-32756,15056,18216,8787,-1032,-5636
21301,-32768,14920,16620,2567,1868,-10743
21331,-32768,16400,8628,-3221,4486,-17914
21353,-32768,19448,-2052,-6040,2374,-26635
21375,-32768,21260,-9956,-5034,2403,-32768
21397,-32768,24616,-13604,-1540,4021,-32768
21417,-28992,29616,-10844,1470,1034,-32768
21441,-20452,32767,-4852,666,-7039,-32768
21463,-10192,29944,-1368,-4251,-14712,-32768
21485,1120,25600,-2588,-10338,-16583,-32768
21501,12968,16512,-6712,-13613,-10646,-32768
21529,21400,7288,-12148,-14580,-7667,-31780
21552,22756,1024,-17716,-12885,-4885,-19521
21571,17212,-2120,-19496,-8731,1404,-8592
21595,9084,-1724,-17628,-4765,7950,-1204
21617,1644,-812,-15792,-2968,7762,3460
21638,-5436,192,-17344,-2079,5655,5346
21659,-10692,-264,-20508,289,7821,5467
21683,-13344,-1624,-22460,3884,9116,4843
21705,-14584,-2168,-21560,7547,6738,3984
21726,-14932,-2668,-17484,10479,3042,3152
21749,-14704,-3180,-12564,12351,1871,2615
21769,-13808,-4348,-7296,13483,4843,2575
21792,-13552,-5492,-2668,13238,7017,2763
21814,-13800,-6724,2304,11460,5931,2977
21830,-13604,-7436,6888,8666,2970,3324
21859,-14532,-7680,11904,4847,1133,3550
21881,-15732,-6592,16676,-469,776,3381
21904,-15628,-5324,20180,-7342,-1459,3164
21924,-14768,-2816,21432,-15351,-4338,3331
21946,-12708,804,20116,-23238,-4882,4112
21969,-9708,4464,14300,-30060,-5248,5906
21990,-9632,7956,5300,-32768,-3357,8222
22013,-11408,10820,-3548,-32768,-3144,9752
22035,-13864,12876,-11904,-32768,-4892,10009
22057,-16360,14072,-17324,-31115,-5861,9474
22073,-18028,14980,-21880,-26976,-4213,8191
22101,-18196,15272,-25636,-22224,-3745,6429
22123,-17424,15024,-28356,-16933,-5533,4957
22145,-15368,15080,-29992,-11103,-6092,4068
22167,-13040,14736,-31052,-4403,-2908,4118
22190,-11356,14144,-30244,2384,-2044,4778
22210,-9476,14168,-26776,8528,-3553,5713
22232,-7172,14372,-21904,13621,-3381,7063
22255,-4952,14868,-17228,17209,-3038,9157
22277,-3968,15124,-13484,19729,-2762,11710
22299,-3664,15448,-10612,21484,-2135,14366
22320,-3648,15700,-8632,22720,-2971,16966
22343,-4880,15148,-7048,23912,-2226,19524
22365,-8256,14880,-5156,24901,1928,21521
22387,-11612,14804,-3032,24920,1513,22631
22409,-15796,14888,212,24232,1032,22745
22431,-20676,14608,3252,22314,2381,21688
22453,-25500,13824,4984,19429,3205,19148
22475,-30604,12420,5708,16103,4317,15255
22497,-32768,11104,5732,12468,3545,9549
22519,-32768,11256,5828,8468,1387,2222
22541,-32768,11780,4888,4714,106,-6083
22563,-32768,13152,1280,2296,2114,-14674
22585,-32768,15816,-3108,1498,3548,-23924
22606,-32768,20284,-5684,1776,3172,-32768
22629,-32768,26216,-6152,1204,-2522,-32768
22651,-25652,29828,-4904,-1363,-12419,-32768
22673,-9848,27060,-6548,-5070,-16417,-32768
22695,6008,19820,-9752,-7012,-12161,-32768
22717,17136,11364,-12756,-7784,-9447,-32768
22739,22072,2708,-16424,-7582,-8431,-26660
22762,20152,-2544,-19564,-4937,-2292,-14782
22783,13840,-4268,-18392,-710,8169,-5349
22801,5584,-4076,-15184,1487,9555,965
22824,-2700,-3444,-13380,2162,5934,4173
22840,-10436,-3440,-13260,3290,6258,4954
22871,-16284,-2980,-12080,4956,8171,3748
22890,-19168,-3308,-10296,5968,6218,1160
22913,-20024,-3640,-8080,6134,1478,-1692
22935,-18416,-4224,-7096,5864,-1201,-4084
22959,-15388,-5004,-7520,6065,-228,-5514
22980,-11088,-6268,-6756,6674,891,-5741
23002,-7464,-7480,-5248,6499,-559,-4434
23025,-6268,-7928,-3760,5724,-254,-2148
23046,-8332,-7668,-3076,4631,2053,-11
23068,-10716,-7008,-4036,3392,3438,924
23091,-11588,-6764,-5316,2640,2222,1224
23112,-12040,-6804,-6020,2423,1353,1481
23130,-12912,-6500,-6040,2588,2308,1714
23157,-14108,-6424,-6052,2281,2596,1484
23179,-14700,-6124,-6552,1710,1768,913
23201,-14676,-6396,-7372,1344,646,320
23223,-14456,-6628,-8772,1865,1774,-66
23245,-14440,-6804,-8728,3099,4126,-429
23265,-14680,-6980,-7000,3520,2739,-875
23288,-14276,-7172,-5216,3310,-273,-1367
23311,-13452,-7872,-2648,2708,-1600,-1657
23333,-12512,-7784,188,2092,219,-1712
23354,-11340,-7448,2868,349,719,-1348
23377,-9948,-7732,5720,-2381,-1271,-342
23399,-9156,-7364,10640,-5752,-2920,1126
23420,-8460,-6288,15888,-10498,-3328,2831
23435,-7856,-3604,19608,-16582,-2293,4985
23465,-7340,600,21100,-24372,-3025,7682
23485,-7308,6148,18268,-32122,-2396,10598
23509,-7980,11668,13176,-32768,-339,13027
23531,-9160,15904,3920,-32768,635,14726
23553,-11828,19384,-4124,-32768,-3868,15533
23575,-15772,22388,-14568,-32768,-7643,15640
23597,-19672,22292,-25716,-32768,-4900,14338
23619,-21452,19300,-32768,-30424,-2813,11593
23640,-22172,17772,-32768,-21985,-5272,8633
23663,-21800,16868,-32768,-13503,-6152,5871
23684,-19196,16384,-32768,-5700,-5306,3414
23707,-15388,15832,-31684,1372,-4775,1930
23729,-11480,15280,-27488,7523,-4977,1607
23751,-7536,15296,-22316,12696,-4900,2536
23773,-3964,14932,-16856,16681,-4710,4667
23794,-1204,15816,-11692,19016,-6117,7789
23817,1648,17200,-8360,19802,-8852,11224
23839,3772,17856,-8060,20203,-10559,15296
23858,2952,18788,-10196,21418,-7779,19498
23880,144,20420,-12196,24029,-5262,22958
23902,-3744,22788,-11728,27261,-6719,25166
23927,-8072,24216,-9608,30356,-6023,25927
23946,-11596,25076,-6448,32578,-4658,25650
23970,-14788,25160,-2484,32767,-2922,24936
23992,-18736,24812,1796,32767,120,23744
24014,-23948,24276,6916,31150,1085,21594
24037,-29500,22276,12752,27489,-304,17889
24058,-32768,18768,18412,21339,-2151,12310
24081,-32768,15140,20884,13689,-4593,5351
24103,-32768,11788,19380,5912,-5868,-1696
24125,-31412,10380,14880,-644,-5558,-7326
24147,-28028,10244,7892,-4789,-2890,-11232
24169,-28076,10136,-732,-6134,2983,-14102
24190,-32768,12576,-8636,-4907,10098,-18190
24212,-32768,17884,-13648,-1684,10871,-25104
24235,-32768,24136,-14216,1899,9910,-32768
24257,-32768,32744,-9008,3915,5165,-32768
24279,-32768,32767,-5172,1809,-4447,-32768
24300,-31300,32767,-4156,-3001,-13002,-32768
24323,-6748,32767,-6060,-8512,-18724,-32768
24346,19208,31812,-10988,-14546,-22598,-32768
24367,32767,12628,-21560,-14164,-11379,-32768
24389,32767,-1988,-23272,-9467,-2011,-28263
24411,32767,-5404,-19832,-5598,1478,-10541
24428,21280,-4528,-15384,-3534,4549,731
24451,7764,-2184,-12036,-3138,6368,5895
24477,-1044,-1740,-12476,-3549,4815,6882
24499,-4760,-2312,-15164,-2767,3285,6822
24520,-7352,-3652,-17200,-607,2262,7136
24534,-9672,-4188,-17232,1977,1288,7546
24565,-13220,-4404,-15348,4229,330,7557
24585,-16864,-4596,-12828,5685,127,6435
24609,-19656,-5136,-10744,6444,883,4370
24629,-21072,-5672,-8228,6519,772,1839
24653,-21288,-6084,-6072,6014,-1111,-500
24675,-20484,-6580,-5380,5130,-3138,-2503
24697,-18748,-7012,-6400,4583,-2828,-4096
24719,-16468,-7572,-7856,4710,-1304,-5041
24740,-13692,-7716,-8676,5147,-1206,-5528
24763,-10444,-8552,-8700,5487,-2986,-5217
24785,-8044,-9112,-8668,6149,-1837,-4083
24807,-7652,-9196,-7656,6782,923,-2622
24828,-8628,-8968,-6820,6767,1983,-1469
24850,-9084,-8932,-6660,6306,912,-680
24873,-9184,-9380,-8280,6393,474,213
24895,-11088,-9528,-8412,7385,2578,921
24917,-13980,-9360,-6820,7957,3113,485
24934,-15504,-9120,-6196,7963,987,-646
24962,-15540,-9532,-6140,8171,-1459,-1947
24983,-14728,-10204,-6032,8698,-2189,-3049
25005,-14164,-11288,-5412,9605,168,-3777
25026,-13588,-11876,-4112,10122,648,-4256
25049,-12516,-11664,-2464,10267,-1394,-4673
25071,-10292,-11536,100,10259,-3660,-4873
25093,-8704,-11496,4204,10124,-4787,-4526
25115,-7480,-10532,11048,9197,-5478,-3821
25136,-6012,-10552,20036,6434,-6682,-2324
25158,-4608,-9872,30828,580,-8402,-98
25180,-2344,-7672,32767,-9050,-8209,2955
25202,-1120,-4148,32767,-21216,-5546,7274
25224,-2128,2600,32767,-32768,-2342,11774
25246,-4896,10164,25644,-32768,4928,14854
25268,-7984,15980,12408,-32768,11938,15414
25290,-8664,20444,2296,-32768,11776,14549
25313,-8472,22516,-6200,-32768,3173,14746
25335,-9704,24428,-14304,-32768,-4421,15764
25356,-11784,23040,-22752,-32768,-1598,16351
25379,-14768,22104,-28348,-32768,-181,15980
25401,-18248,19848,-31216,-31846,-3893,14250
25424,-20432,18176,-29704,-25850,-7897,11335
25444,-20652,16880,-28544,-20774,-8270,8360
25467,-19364,15816,-29556,-15574,-7698,5616
25489,-17072,14700,-30144,-9954,-10345,3687
25511,-14236,14052,-28828,-3970,-12259,2722
25533,-10712,13760,-26364,1816,-12613,2708
25552,-6760,13512,-23816,7280,-11486,3951
25568,-3452,14748,-20204,12053,-11189,6266
25599,-588,16336,-16756,15692,-12991,9233
25621,1136,17804,-13944,18382,-14985,12395
25641,2084,18928,-12292,21181,-13806,15679
25665,2168,20340,-11156,24398,-11009,19135
25685,1584,22820,-9456,27401,-11921,22390
25710,-672,24984,-6432,30428,-10710,25282
25730,-4888,27540,-2848,32737,-5638,27407
25752,-8572,28516,-636,32767,-3685,28708
25773,-12272,29420,1504,32767,-1769,29739
25797,-17028,30968,4236,32767,1840,29778
25819,-24168,31088,7180,32767,5584,28474
25840,-31580,28848,10568,29723,4584,24741
25863,-32768,25092,13572,24272,1273,18425
25885,-32768,20892,14156,17717,-1716,10002
25907,-32768,17008,10904,11533,-4569,710
25928,-32768,15828,6040,7105,-6268,-7885
25950,-32768,15856,712,4698,-6229,-14311
25972,-29860,16044,-4192,4295,-3590,-18664
25995,-31476,17172,-7640,5781,2227,-22758
26017,-32768,19020,-8804,7125,2713,-28275
26040,-32768,21768,-8584,7318,-627,-32768
26058,-32768,27340,-9040,6998,-3452,-32768
26081,-32120,32144,-10336,6767,-5998,-32768
26106,-22492,32767,-10252,7087,-7028,-32768
26125,-10788,32767,-8052,6213,-9446,-32768
26149,2224,26088,-6092,2909,-12546,-32768
26169,13200,15332,-6680,-964,-11770,-32768
26193,19296,6452,-9660,-2804,-5263,-32768
26215,20492,-560,-10572,-2316,3112,-29725
26237,20332,-4664,-11140,-3303,1127,-20701
26259,18340,-6992,-14600,-3380,1245,-12655
26280,12832,-8236,-16016,-2129,2619,-5955
26303,6548,-8332,-16324,-329,3535,-1746
26323,2960,-8800,-15424,1308,2349,776
26347,-216,-9256,-15004,2845,445,2756
26369,-3448,-10148,-13516,4506,-609,4023
26391,-7424,-10312,-10624,5867,-965,4713
26413,-11712,-9828,-7260,6578,-929,4238
26435,-13760,-10276,-4376,6268,-2111,2915
26457,-13368,-10744,-2396,5388,-3272,1434
26479,-12296,-11268,-1728,4508,-2431,563
26495,-10908,-11680,-948,3425,-883,386
26522,-9664,-11604,-1200,2118,-458,592
26545,-8304,-11768,-2012,1202,111,1159
26566,-8360,-11588,-2136,476,503,1775
26590,-8492,-11440,-2148,-461,68,2183
26611,-8444,-11468,-1824,-1286,109,2817
26630,-9168,-10912,-1288,-2243,-469,3455
26653,-10256,-10416,-572,-3146,-1252,3938
26676,-11680,-9516,116,-4155,-1525,3939
26698,-11896,-8824,284,-5600,-1909,3618
26721,-12100,-8248,-268,-7139,-962,3511
26743,-13084,-7068,-2520,-8673,486,3351
26763,-14340,-6076,-6696,-9632,2479,2898
26787,-15240,-5492,-11528,-9531,4135,1655
26809,-14600,-5268,-16816,-8093,4657,275
26830,-13380,-5452,-20580,-5333,4560,-749
26853,-11480,-6344,-22248,-1974,3008,-1053
26875,-10216,-6640,-21316,1433,498,-705
26896,-9784,-6524,-18224,4238,-914,-89
26919,-9824,-6292,-14028,6205,-1595,357
26941,-9348,-6356,-9956,7036,-1013,760
26963,-8536,-6608,-6520,6755,-296,1402
26985,-7392,-6956,-4268,5892,380,2502
27007,-6964,-7064,-3164,4709,1453,4028
27029,-7108,-7376,-3232,3539,2810,5510
27051,-7780,-8604,-4676,2447,3760,6729
27073,-9676,-9472,-7132,2219,5283,7624
27095,-12448,-9784,-8132,2849,5652,7806
27117,-15256,-10184,-7232,3560,3686,7084
27139,-17192,-10300,-3808,4132,1539,5872
27160,-19296,-9352,3400,3615,-771,4504
27181,-20644,-7748,13104,450,-2942,2852
27202,-18980,-7172,20776,-5566,-3327,1193
27227,-14908,-5792,25188,-13694,-3152,420
27249,-8984,-2824,25536,-22874,-3791,1609
27271,-3644,1904,22904,-31921,-4527,5389
27290,-1308,9044,17268,-32768,-3221,10484
27314,-2772,14740,3632,-32768,503,15343
27337,-7372,17368,-12088,-32768,5874,17313
27359,-13020,17016,-27144,-32768,394,17316
27380,-19540,15460,-32768,-30989,-4733,15602
27402,-24008,14724,-32768,-21736,-3719,12271
27424,-25372,14224,-32768,-13846,-2551,7843
27440,-23364,13904,-32768,-7651,-5152,3682
27469,-19080,13184,-32408,-2025,-6268,942
27490,-14452,11736,-30212,3747,-4242,84
27513,-10200,10620,-26916,9673,-1334,829
27534,-6332,10592,-21616,14564,-839,2777
27557,-2656,11068,-15824,17772,-615,5911
27578,-260,11968,-11336,19141,-653,10023
27601,-768,11980,-9152,19737,2463,14405
27623,-2532,12496,-9100,20013,4087,17863
27644,-4076,12756,-9496,20531,1277,20709
27667,-6820,12528,-9220,21751,1617,22804
27689,-10776,12680,-8048,22648,4088,23899
27702,-13852,12624,-6260,22637,2649,23965
27730,-17052,12744,-3468,22011,2621,23363
27752,-21088,12700,-644,20280,4160,21968
27775,-26172,11740,404,17614,3882,19267
27790,-31024,9856,396,14795,2662,14791
27820,-32768,8348,-220,12177,1604,8705
27841,-32768,6908,-912,10029,1261,1884
27858,-32768,6968,-980,8446,2738,-5189
27886,-32768,8708,-1160,6776,2684,-12491
27909,-32768,11376,-3624,5447,3650,-20888
27929,-32768,16500,-7564,4545,1859,-31310
27952,-32768,23676,-9984,4000,-4138,-32768
27975,-27808,27712,-9624,2084,-14426,-32768
27996,-12788,24348,-11396,-957,-18663,-32768
28019,-396,19152,-15572,-1804,-13015,-32768
28039,9712,12796,-17848,-445,-6161,-32768
28063,17920,4296,-19300,765,-3779,-32768
28085,22240,-3272,-20244,1952,-2635,-25594
28107,20716,-7284,-20408,4051,1613,-14996
28129,15096,-8496,-18624,6477,5586,-6664
28151,8580,-9328,-16848,8350,5070,-724
28173,1644,-8948,-13628,10416,4060,2788
28195,-5172,-9004,-9892,12221,1986,4066
28216,-10024,-9104,-4116,13417,426,3753
28239,-13736,-8776,2876,13050,-3354,2351
28258,-17116,-8424,10552,10162,-9713,-181
28284,-16140,-9064,18516,5120,-14054,-2620
28306,-12044,-9700,26668,-1741,-12988,-3512
28326,-6204,-9076,32767,-11340,-12000,-2063
28347,-1148,-6476,32760,-22715,-11699,2225
28369,652,-340,27788,-32437,-6831,7999
28391,-224,7532,21064,-32768,1739,13285
28415,-2968,16244,13772,-32768,5172,16863
28429,-6064,23444,3808,-32768,3993,19160
28459,-9468,28508,-7612,-32768,2110,19899
28480,-13868,29764,-17888,-32768,-3285,19525
28503,-18420,27856,-30004,-32768,-4321,17815
28525,-21744,23252,-32768,-32768,-4065,14582
28547,-23756,20040,-32768,-25718,-8784,10806
28569,-23180,20180,-32768,-15994,-10578,7099
28591,-20120,20076,-32768,-8772,-11261,4198
28613,-16304,19312,-30644,-3075,-11783,2570
28628,-12904,17444,-28956,2618,-10484,2187
28656,-9612,15884,-27108,8861,-8523,2710
28678,-5876,15176,-22576,14696,-8510,4008
28700,-2052,15672,-16592,18974,-10009,6167
28722,1564,16528,-11096,21422,-11533,9277
28745,3520,17340,-7684,22742,-10041,13456
28765,4180,18684,-6568,23450,-8325,18108
28789,2576,20456,-7080,24251,-6946,22631
28807,-700,21372,-8572,25854,-6278,26124
28830,-4932,22752,-8856,28070,-4561,28203
28852,-9128,23084,-8388,30534,-3862,28841
28877,-13444,23664,-6148,32608,-1847,28564
28899,-18032,24556,-2376,32767,1645,27400
28921,-24220,24216,2200,31924,3567,25046
28943,-29884,22516,6740,28353,1134,20619
28965,-32768,18756,10848,23579,-2502,14644
28986,-32768,15276,13984,17622,-4117,7846
29008,-32768,12848,14104,11141,-5762,979
29031,-31276,11292,11248,5426,-6115,-4855
29052,-28960,10224,6204,1258,-4423,-9230
29071,-29072,10192,-1120,-812,-1103,-12950
29096,-32600,10932,-9832,-55,4341,-17256
29119,-32768,14736,-15412,3059,6987,-23469
29141,-32768,17948,-15588,5895,3858,-31064
29163,-32768,23248,-13684,7237,-115,-32768
29185,-32768,28368,-12392,6630,-5767,-32768
29207,-22444,32767,-12252,5813,-9968,-32768
29229,-7188,28832,-12432,3631,-17109,-32768
29251,7680,20360,-13004,2490,-14802,-32768
29273,16444,9836,-10452,1112,-11540,-32768
29296,20176,1948,-11952,-849,-8003,-32768
29318,21104,-4568,-13692,-762,-2024,-23730
29337,17732,-7976,-13452,132,1549,-13949
29359,11224,-8560,-12020,1130,2829,-6585
29381,3820,-8776,-10796,1779,3138,-2003
29401,-1800,-8856,-10296,2054,2894,174
29424,-5668,-9248,-10160,2937,3576,1208
29448,-8580,-9916,-8284,3448,816,1269
29470,-10276,-10688,-6692,3960,-2281,794
29493,-12792,-11080,-5076,4334,-3444,-25
29507,-14804,-10688,-2120,4271,-3445,-1346
29537,-15028,-10308,1208,3120,-4071,-2778
29557,-12940,-10764,4724,710,-6327,-3615
29581,-9916,-10588,8916,-2236,-8645,-3283
29603,-6072,-10324,15496,-6386,-11151,-1818
29625,-1664,-8824,20716,-13018,-12605,1635
29647,1408,-5404,23856,-20985,-10901,6950
29669,2124,868,23484,-29555,-8117,13215
29690,36,9792,21324,-32768,-3509,18997
29713,-2764,18476,16268,-32768,758,23147
29729,-7804,26388,7516,-32768,2102,25099
29757,-13200,29808,-7168,-32768,835,24695
29779,-18440,29608,-25860,-32768,1698,21753
29801,-23748,22616,-32768,-32768,-4935,17875
29823,-28104,18872,-32768,-25420,-11263,12942
29845,-27188,18284,-32768,-13564,-11556,7871
29867,-23272,18852,-31428,-6186,-7538,3700
29890,-18340,18304,-26048,-2342,-8141,1024
29911,-13920,17000,-25088,1064,-9547,-135
29930,-9288,14316,-25292,5640,-9965,28
29955,-5436,12108,-23164,11261,-8322,1514
29977,-2284,12108,-18356,16151,-6811,4015
29998,620,13544,-13056,19381,-7493,7237
30019,2516,14552,-8236,20916,-8709,11260
30040,2908,16216,-5492,21298,-8761,15651
30065,2132,18292,-4976,21255,-8979,19632
30079,544,19660,-5852,21653,-9899,23130
30108,-2128,20756,-6600,23046,-9139,25809
30131,-6424,21796,-7984,25106,-6278,27193
30152,-9984,23636,-8248,27089,-6474,27277
30175,-13020,24284,-7088,28940,-7675,26306
30197,-16716,24576,-4904,30507,-3083,24655
30218,-21488,23972,-1892,31002,1209,22491
30241,-26432,23580,3112,29835,293,19084
30262,-29964,21800,8936,26619,-2443,14167
30284,-31212,18780,13672,21403,-4848,8460
30307,-30852,15760,15636,15115,-6323,2838
30328,-29136,12636,14452,8741,-7550,-2340
30351,-25960,9924,9308,3607,-7579,-6542
30373,-21408,8336,3156,561,-6353,-9383
30395,-16316,7524,-1780,-473,-3555,-10364
30416,-14016,6680,-5480,29,770,-9614
30439,-17308,6860,-8312,1350,5089,-8877
30461,-26812,8636,-10592,2760,9231,-10677
30483,-32768,13108,-11588,3722,7989,-16371
30496,-32768,15104,-11296,4169,4175,-24121
30527,-32768,19260,-11192,4519,2108,-32768
30547,-32768,24448,-11804,5238,1195,-32768
30570,-32768,32767,-12040,6466,-166,-32768
30592,-26580,32767,-11892,5587,-9970,-32768
30613,-9612,32767,-13296,4220,-13623,-32768
30636,7548,24996,-11084,4400,-7821,-32768
30660,21696,11580,-8516,1359,-11477,-32768
30681,28680,1000,-9452,-574,-8545,-32768
30703,27476,-5060,-7976,-1166,-3743,-24617
30725,22940,-7736,-7460,-2038,-2379,-13771
30747,16828,-7980,-7816,-2541,-370,-5527
30768,10028,-7104,-7664,-2941,2340,-22
30791,4864,-7092,-8596,-3427,3213,3139
30813,2636,-8344,-10492,-3279,3252,5357
30835,400,-9636,-11880,-2166,2745,7566
30857,-3500,-10220,-10848,-697,2933,9176
30879,-6980,-10164,-9012,-54,1151,9792
30901,-8884,-10396,-7448,224,-185,9769
30923,-10132,-11004,-4704,299,-300,9869
30944,-12984,-10620,264,-454,-376,9816
30964,-15720,-9564,5688,-2784,-2152,8786
30990,-16312,-7968,11412,-6923,-5028,7342
31011,-14496,-6652,14220,-12656,-5985,6920
31030,-12728,-3940,15100,-18952,-4022,7520
31052,-11740,-212,14048,-25568,-6008,8772
31075,-11372,4084,10088,-31448,-7516,10566
31098,-12012,8136,2576,-32768,-4200,12030
31120,-13496,11468,-5972,-32768,-86,12184
31140,-14180,12896,-15444,-32768,-415,11475
31163,-15588,11996,-24244,-31272,-2174,10574
31186,-17360,11132,-32296,-24635,-3646,9363
31209,-18796,11224,-32768,-16485,-3325,7426
31232,-18728,12088,-32768,-9284,-4910,5206
31253,-16912,12776,-28728,-4308,-7699,3352
31275,-13944,12420,-25864,-513,-6924,2438
31297,-10824,11744,-25276,3666,-2672,2665
31319,-8148,10336,-24528,8003,-1164,4009
31340,-6028,9764,-21456,12207,-1928,6074
31363,-4424,9928,-16560,15499,-2274,8711
31379,-4040,10744,-12224,17487,-355,12067
31407,-5280,11376,-9928,18331,2395,15326
31429,-6548,11468,-9844,18497,1846,17846
31451,-8268,11116,-10524,19220,925,19603
31473,-10148,10468,-10588,20444,1986,20708
31490,-13124,10624,-9488,21601,4890,21119
31518,-15960,10340,-7244,21813,4629,20788
31540,-19280,9888,-3884,20865,3613,19615
31561,-21900,8488,-640,18905,2769,17678
31583,-24752,7304,1708,16432,3401,15099
31604,-27376,5844,2752,13306,3197,11568
31627,-29024,4264,2568,10039,1830,7255
31649,-30780,3264,1616,6916,2066,2570
31669,-32768,4364,-1228,4423,5299,-2795
31693,-32768,6196,-6024,3121,4848,-9404
31713,-32768,8972,-9820,3205,3858,-16804
31736,-32768,12644,-10416,3767,2703,-24489
31759,-32768,15932,-8956,2718,-2826,-32119
31780,-27924,18316,-6852,147,-10677,-32768
31803,-15532,17212,-6796,-3394,-16304,-32768
31825,-2340,12668,-7772,-5772,-14481,-32768
31848,8884,7092,-9552,-7739,-12698,-32768
31869,14616,1908,-14084,-8686,-9737,-26953
31891,14700,-1696,-18600,-7165,-2616,-17616
31913,10448,-4144,-22664,-3917,4645,-9257
31934,3640,-4464,-24912,419,10662,-3572
31957,-2636,-4644,-26744,4759,11801,-606
31978,-6612,-4268,-25852,9056,9733,472
32000,-9028,-4144,-22800,13149,9086,522
32022,-9920,-4892,-17188,16435,9911,265
32045,-10136,-5788,-10864,17751,7437,266
32066,-9672,-6356,-5476,17694,4036,556
32090,-9600,-6724,-568,16789,2436,1278
32111,-11576,-7684,5964,14532,2146,1743
32133,-14288,-8240,11948,9994,-1327,1264
32152,-16484,-8500,19700,4475,-4592,128
32177,-16068,-7344,29492,-3279,-8149,-1083
32199,-12424,-5392,32767,-14898,-14009,-755
32219,-7652,-1092,32767,-27934,-16699,2059
32241,-4332,6596,29888,-32768,-11640,6701
32264,-4560,15364,19012,-32768,-4644,11362
32287,-6140,23328,8336,-32768,-2341,14329
32301,-10232,28576,-3420,-32768,-8589,16174
32331,-13808,31236,-17396,-32768,-9034,16616
32352,-17936,28080,-31424,-32768,-5786,15676
32375,-22132,24488,-32768,-32768,-7141,13116
32397,-24088,21808,-32768,-23443,-11906,9587
32419,-21832,21280,-32768,-13078,-10382,6089
32441,-17056,21552,-32768,-5477,-8641,3866
32463,-12368,21164,-31040,600,-9946,3141
32485,-7704,19712,-28372,6603,-10660,3929
32507,-3476,18020,-25996,13057,-8646,6148
32528,-276,17800,-21988,19279,-7178,9481
32551,2156,19596,-16188,23938,-8384,13425
32573,3676,21692,-10636,26643,-10136,17517
32595,3692,22672,-7892,28387,-8828,21644
32617,-188,23768,-7020,29951,-2222,25503
32639,-4592,24476,-6368,30881,-3549,27687
32658,-7512,25068,-4036,31771,-7989,28488
32679,-11692,25552,-692,32552,-3445,29014
32702,-17916,26492,1944,31621,1485,28663
32724,-25588,25252,4596,29212,1237,26168
32746,-31832,23044,8220,25659,-1437,21154
32770,-32768,19316,11404,20847,-2771,14334
32792,-32768,15716,13340,15096,-4417,6100
32814,-32768,13000,11988,9008,-6528,-2229
32837,-32768,11540,6768,4330,-6536,-9190
32859,-31796,11660,604,2268,-2371,-14226
32880,-32768,12232,-6984,2933,4673,-19041
32903,-32768,15740,-12476,5210,7493,-26073
32925,-32768,21780,-13804,7997,4777,-32768
32947,-32768,28088,-11480,8887,-1363,-32768
32969,-30452,32767,-9532,7762,-7452,-32768
32991,-16968,32767,-11908,5849,-10093,-32768
33013,-180,30584,-12100,5375,-9633,-32768
33034,15632,17224,-9368,2793,-14748,-32768
33056,25268,5416,-8468,177,-13400,-32768
33079,25376,-2064,-7680,-996,-3501,-26460
33101,20764,-6032,-8556,-1936,3002,-15417
33123,14536,-7312,-11752,-2325,4127,-7295
33145,8136,-8152,-14596,-1248,3673,-1917
33166,3320,-8316,-14172,851,3415,1613
33189,-1044,-8424,-11600,2615,2299,4064
33211,-6476,-8032,-7160,3318,1879,5405
33232,-11060,-7560,-3916,2749,1720,5362
33252,-14388,-7368,-1076,1529,1606,4416
33274,-15500,-7656,1256,-66,335,3192
33296,-15384,-7344,5036,-2400,-1931,2041
33320,-13260,-7404,8952,-5944,-4479,1511
33341,-10816,-6896,12564,-10313,-5836,2023
33363,-8536,-6040,15040,-15214,-4901,3868
33387,-8900,-2928,17076,-21138,-4857,6247
33409,-10084,1712,16128,-27555,-4116,8355
33430,-11240,6416,12072,-32768,-729,9745
33451,-12248,10544,3488,-32768,2512,10288
33475,-14172,13372,-7264,-32768,1903,9910
33497,-16580,15312,-16560,-32768,-2045,8943
33518,-18784,16364,-24828,-32689,-2263,7225
33541,-19360,17060,-29632,-27561,-2364,4659
33562,-18640,17184,-32768,-22270,-4836,2245
33585,-16540,16360,-32768,-16018,-5108,362
33607,-13444,15176,-32768,-9027,-4003,-566
33629,-9848,14008,-32768,-1681,-3544,-477
33650,-6176,13280,-31864,4943,-3937,785
33673,-3200,12380,-25264,10093,-4509,3077
33695,-1284,12024,-19552,13845,-3614,6090
33718,-44,12592,-14644,16333,-2448,9600
33736,1088,13580,-11184,17513,-4431,13370
33757,736,14468,-9088,18210,-5777,17357
33780,-1976,15324,-8220,19114,-1936,20838
33802,-5736,16036,-8992,20032,1032,23368
33825,-8864,16076,-9812,20959,-1493,24581
33847,-11824,15572,-9020,22253,-2835,24866
33868,-15428,14908,-6948,23474,998,24389
33890,-18772,13636,-4976,23456,1477,23536
33915,-23952,13196,-2584,22858,3347,21811
33937,-29956,11864,-136,21109,4703,18540
33959,-32768,10328,1912,18776,5387,13527
33980,-32768,10272,3736,15553,3829,6182
34001,-32768,11056,4204,11378,685,-3060
34024,-32768,12096,756,7781,473,-13486
34047,-32768,15012,-4116,5953,104,-24161
34069,-32768,17184,-7308,5190,-3537,-32768
34084,-31904,21128,-9192,4564,-7197,-32768
34113,-17124,19696,-11052,3865,-9015,-32768
34135,-544,16668,-10568,3338,-8532,-32768
34157,11640,10612,-11116,1205,-10620,-32768
34179,19680,3012,-14088,-429,-8937,-30274
34200,20656,-2756,-17428,897,-299,-19802
34223,15456,-5676,-16932,3388,6929,-10569
34245,7276,-6196,-15096,4586,6240,-4360
34263,404,-6680,-14656,5656,4596,-803
34286,-7332,-6440,-12176,7013,6178,776
34311,-14264,-7008,-9952,7914,6476,251
34331,-18676,-7272,-7188,8032,3885,-1980
34352,-20652,-7824,-5476,7612,279,-4885
34374,-19300,-8036,-3700,7659,-831,-7783
34398,-15828,-8612,-1196,7147,-2660,-9829
34419,-10484,-9584,1500,5174,-6898,-10614
34443,-5260,-10996,4108,2640,-8629,-9466
34464,-1288,-12320,8936,-54,-7243,-6457
34485,1268,-11328,17108,-4445,-7789,-2599
34508,3028,-8784,27288,-11590,-11675,2209
34530,3772,-3228,32767,-21880,-15827,8008
34552,712,5504,32767,-32768,-10041,14530
34567,-3500,16728,27548,-32768,1424,19024
34597,-7608,26552,13820,-32768,7001,20503
34619,-12216,32124,-6620,-32768,974,20056
34641,-17484,32136,-23812,-32768,-5966,18504
34662,-22808,28204,-32768,-32768,-7347,15715
34684,-25544,26012,-32768,-32768,-4346,11370
34707,-25308,23692,-32768,-23212,-7192,6889
34729,-22772,22244,-32768,-14464,-10357,3045
34750,-17316,21700,-32768,-6414,-9527,520
34773,-10708,20456,-32768,1553,-8297,66
34795,-5012,18916,-32768,9186,-8326,1556
34817,-40,18400,-27988,16064,-8925,4628
34840,3436,18652,-19936,21414,-9276,8682
34859,5140,19644,-12324,24732,-8110,13419
34882,4996,21484,-6608,25871,-7985,18281
34895,4136,22444,-4024,25662,-10551,22506
34927,1056,22256,-3260,26030,-9397,26053
34949,-4680,22760,-3616,26706,-4394,28422
34970,-9544,21928,-3716,27842,-3855,29515
34991,-13912,22184,-1404,28884,-5430,29546
35014,-19300,21960,956,29376,-610,28789
35036,-26160,21124,3048,28078,4056,26584
35058,-31544,19812,6028,25073,1944,22007
35081,-32768,17088,9872,20715,-2083,15774
35101,-32768,13556,12508,15505,-2166,8988
35124,-32768,12228,12636,9549,-3044,1754
35147,-32768,11756,9016,4001,-4804,-5479
35169,-32768,12904,1752,951,-1695,-12756
35190,-32768,16864,-7360,973,1218,-21711
35213,-32768,21412,-14332,3093,718,-31520
35235,-32768,28688,-17508,6643,1204,-32768
35256,-32768,32767,-15892,9266,-2553,-32768
35279,-29644,32767,-12540,10257,-4788,-32768
35301,-13752,32767,-7820,8578,-11857,-32768
35323,5688,30480,-5720,2655,-21601,-32768
35345,24480,19212,-8680,-1829,-17615,-32768
35368,32767,3712,-10220,-2119,-4616,-32768
35390,32767,-4404,-9956,-2590,100,-22357
35410,26568,-6144,-11024,-3008,1453,-9403
35432,17000,-6524,-12672,-2536,2437,-920
35455,8596,-6156,-13556,-843,5106,4272
35477,956,-6424,-12932,565,5987,6897
35498,-4684,-6124,-12656,1599,5429,8111
35520,-9056,-6964,-12380,2829,4475,8514
35543,-13832,-7792,-11004,4134,4620,7656
35557,-16676,-9440,-8424,5357,4561,5990
35587,-18100,-10160,-3932,5689,2339,3803
35608,-17336,-11076,2320,4511,-2343,1842
35630,-14964,-11684,9512,1784,-5743,774
35653,-12116,-10872,18280,-2324,-4072,1159
35668,-10404,-8344,26556,-9738,-3899,2783
35697,-8524,-4332,27808,-19537,-3449,5311
35718,-8788,1480,23692,-28797,-603,7905
35741,-8852,7380,11636,-32768,3269,9768
35763,-9580,11584,-1372,-32768,5647,10688
35785,-11736,14244,-13992,-32768,887,10815
35807,-14988,15624,-24848,-32768,-2202,9818
35829,-16692,15440,-32352,-28999,-2700,8049
35851,-17024,14448,-32768,-21907,-2694,5955
35872,-16812,15004,-32768,-15768,-4910,4001
35896,-15064,15072,-32768,-10172,-5965,2531
35915,-12208,14012,-32768,-4668,-5326,2178
35939,-8872,12064,-32768,1496,-3808,2863
35961,-5984,10624,-30108,7580,-4033,4514
35981,-3580,10136,-24008,12640,-4278,6768
36003,-1784,10552,-17292,15997,-3436,9688
36027,-884,11204,-12392,17717,-2247,13170
36049,-2048,10576,-9732,18570,-736,16750
36071,-6236,10124,-8712,19493,4800,19512
36093,-11152,8980,-8280,19616,4369,20681
36115,-16952,7064,-7560,19800,2440,20429
36137,-24700,5920,-6304,20283,6137,18501
36158,-32768,6200,-4012,20132,9347,14916
36181,-32768,9140,-128,18093,4988,8853
36202,-32768,8944,2152,14128,-975,542
36223,-32768,8332,232,10140,-2709,-9008
36247,-32768,7940,-4916,7875,-5068,-17598
36269,-27556,6668,-8372,7060,-7977,-23534
36291,-16596,4512,-10812,7653,-5089,-25753
36312,-9176,1376,-11420,9364,-107,-24668
36334,-7600,-220,-9780,10634,2379,-21954
36356,-9008,292,-5680,11034,3922,-19845
36379,-12448,-432,-2092,9347,2719,-18772
36400,-16284,336,-164,6789,647,-20025
36423,-14604,584,160,3597,-4597,-22369
36440,-8720,-664,-1476,76,-10830,-23273
36467,-1492,-3184,-5064,-1459,-8073,-21601
36488,3928,-6200,-7588,-1125,-1436,-17395
36510,5968,-8264,-9388,-1015,-323,-11925
36530,6416,-9044,-11252,-946,-1151,-6649
36553,5496,-9688,-12784,-250,-336,-1535
36577,2128,-9264,-12236,1232,3837,2537
36598,-1992,-9024,-10668,1761,4530,5117
36621,-6204,-9472,-9808,2121,3012,6442
36643,-10300,-9812,-8064,2910,2285,6668
36658,-12736,-9936,-4620,3810,2961,6205
36687,-14948,-10356,320,3327,1249,5106
36708,-16476,-10884,5088,1476,-3083,3365
36730,-16880,-10460,11072,-1265,-6536,1570
36753,-16408,-9240,18796,-5140,-7791,298
36775,-15388,-6312,27044,-12373,-11845,-142
36797,-11948,-2476,29900,-22662,-15831,1447
36819,-9588,3356,25948,-31646,-10457,4906
36841,-9980,10472,19584,-32768,-3910,7899
36862,-11308,17140,9948,-32768,-2427,9843
36885,-13412,22016,-56,-32768,-5189,11125
36906,-16288,24044,-13452,-32768,-8940,11521
36929,-18884,22548,-24564,-32768,-8489,10432
36951,-20652,20736,-30044,-32768,-10192,8561
36973,-21028,21220,-32196,-28313,-12307,6626
36995,-20332,20600,-32768,-21653,-11524,5083
37017,-18592,20064,-32768,-14669,-10007,3670
37038,-16292,18684,-32768,-6441,-7888,2890
37057,-12960,17948,-32768,2798,-7284,2847
37083,-9452,17684,-32768,11545,-8373,3865
37103,-5636,18396,-26400,18762,-9510,5548
37125,-1512,20040,-18676,23969,-10162,8288
37149,1724,21440,-12244,27258,-10101,12136
37169,3244,22768,-8108,29256,-8961,16726
37191,1964,24156,-5840,30965,-5877,21613
37214,-1712,25792,-4640,32500,-2512,25669
37237,-5556,27404,-4556,32767,-669,28375
37258,-8828,27620,-3752,32767,-553,30030
37281,-12832,27896,-1524,32767,-634,30731
37302,-16820,27484,1532,32767,1402,30386
37324,-21164,26260,4672,32767,3186,29073
37347,-26708,24576,8104,32218,4378,26531
37369,-32196,21900,11704,27470,2099,21767
37391,-32768,18140,14768,21677,-1712,15332
37412,-32768,14920,16032,15155,-3756,8068
37435,-32768,12540,14516,8862,-3868,1174
37457,-32768,11192,9440,4022,-2732,-4988
37478,-32768,10700,3444,1522,-299,-10160
37500,-32768,11860,-912,1067,4265,-15116
37523,-32768,15520,-3620,739,5199,-21900
37545,-32768,20716,-4100,184,1609,-30502
37568,-32768,27296,-1256,-1903,-4455,-32768
37589,-32768,32340,464,-6219,-11316,-32768
37609,-31496,32767,-1972,-11045,-14777,-32768
37633,-17236,32767,-6192,-13538,-13846,-32768
37655,-1612,32767,-6236,-15354,-15073,-32768
37676,11760,25708,-5492,-20320,-20262,-32768
37697,22496,16388,-15380,-24105,-15167,-32768
37719,24812,6968,-24136,-20077,4110,-27345
37741,22248,1244,-28092,-14451,12752,-15647
37764,15584,-1060,-29264,-9827,9758,-6210
37787,7348,-864,-30844,-5127,8343,-240
37809,444,-924,-30528,62,10642,2707
37828,-4232,-1640,-30204,5131,13586,4009
37853,-6612,-2552,-28816,9869,13159,4673
37875,-8204,-3144,-24580,13807,9669,5179
37895,-8940,-4148,-19316,16901,6750,5459
37918,-9768,-5560,-12872,19260,5816,5720
37940,-11548,-6444,-5000,20542,6852,5693
37962,-13232,-6876,4624,19490,4839,5190
37985,-14264,-8128,14484,14955,-2753,4197
38007,-15404,-8524,23164,8166,-7998,3297
38029,-16628,-7816,30836,-383,-7963,2645
38050,-16388,-6100,32767,-11393,-7686,2160
38073,-12736,-3040,31292,-22876,-7516,2517
38096,-8072,2100,24704,-32371,-5951,4633
38117,-5940,8100,17152,-32768,-4328,7959
38136,-5148,14436,8928,-32768,-3645,11276
38159,-6680,19104,-720,-32768,-3723,14206
38179,-10356,22340,-14448,-32768,-3091,15492
38205,-13984,22732,-25680,-32768,-2938,14856
38226,-18572,21152,-32476,-32768,-8246,12761
38246,-21168,19680,-32768,-27159,-11866,9844
38269,-20612,19832,-32768,-19658,-11105,6868
38291,-17880,19880,-32768,-12587,-9474,4781
38313,-14780,19552,-32768,-5726,-10655,3848
38336,-11556,18304,-31028,1026,-12244,3785
38358,-8316,17016,-27816,7584,-12744,4443
38380,-5244,16324,-23696,13855,-11111,5932
38402,-2296,17092,-18572,18944,-11325,7964
38425,436,18680,-13468,22509,-12852,10851
38446,2336,19956,-9624,24784,-14261,14391
38468,2840,20976,-7068,26646,-13048,18321
38490,-4,21460,-5080,28762,-8085,22340
38512,-4080,22044,-4260,30272,-4793,25072
38535,-8604,22360,-2980,31460,-3597,26720
38557,-13524,22796,-1248,32598,-562,27446
38578,-19656,23944,1132,32767,3544,27130
38600,-26268,23912,3580,31395,5820,24985
38623,-32620,22632,6760,28279,4684,20688
38645,-32768,20088,9280,23851,3099,14057
38667,-32768,18316,10996,18447,299,5472
38688,-32768,17300,10948,12820,-2315,-4579
38707,-32768,17004,8772,7758,-3824,-14813
38731,-32768,17916,4732,3998,-3838,-23880
38755,-32768,19160,260,1772,-3445,-31367
38776,-31284,19404,-3880,581,-3360,-32768
38796,-26676,21100,-6488,145,-3729,-32768
38812,-20488,23716,-7120,-675,-6987,-32768
38843,-11836,24600,-7428,-2958,-13292,-32768
38864,-2972,22696,-9500,-5603,-16271,-32768
38887,4652,15844,-13020,-7026,-13625,-32768
38909,9500,8592,-15096,-6040,-7738,-32768
38931,11556,3068,-16456,-4713,-5223,-28512
38952,11640,-1124,-17488,-2293,-2133,-20545
38975,10096,-4128,-16092,173,-996,-13214
38997,7544,-5648,-14808,2215,-746,-6665
39018,3516,-6548,-12160,4189,2098,-1290
39040,-1132,-6592,-9404,5159,4798,2501
39062,-5320,-6508,-7188,5199,5139,4869
39085,-8572,-6532,-5824,4723,3365,6191
39106,-11396,-6696,-4880,4300,3281,6556
39128,-13780,-6544,-4232,4035,4952,5980
39151,-14916,-6420,-3168,3341,5715,5246
39173,-15252,-6732,-3824,2148,4277,4660
39196,-15540,-6936,-5408,1515,3634,4118
39216,-15020,-6904,-6804,1606,4693,3397
39239,-13640,-7528,-7188,2458,7625,3056
39260,-12648,-7876,-5704,2440,6934,3358
39283,-12752,-7692,-3872,1647,3595,3888
39304,-12984,-7328,-1088,723,2334,4217
39326,-13356,-7032,2872,-609,3982,4453
39349,-13912,-6028,7472,-3683,4434,4438
39370,-13296,-5080,9484,-8562,2052,4436
39393,-12000,-3688,8532,-13280,1815,5020
39415,-11288,-2212,5364,-16877,3951,5916
39436,-11312,-396,1588,-19659,5235,6719
39459,-11712,1508,-4092,-21662,3664,7154
39480,-12248,3076,-9408,-22028,1543,7214
39502,-12980,3868,-13008,-20914,-401,6991
39524,-13356,4716,-14788,-18797,-7,6601
39545,-13520,5484,-16408,-16844,492,6143
39562,-13812,6480,-18012,-14760,-506,5630
39591,-13580,7148,-19204,-12604,-2419,5084
39612,-13132,7744,-20292,-10194,-2763,4770
39634,-12268,8516,-21328,-7200,-940,4625
39656,-11068,9556,-22252,-4284,-1139,4832
39678,-9944,10716,-23476,-1334,-2256,5490
39700,-8280,11024,-24668,2140,-2343,6700
39723,-6588,10844,-25224,6413,-1041,8553
39745,-5348,10972,-24280,10714,284,10800
39767,-4716,11676,-21672,14307,-1000,13167
39789,-4796,11848,-17920,17091,-1748,15427
39809,-6044,11716,-14548,19441,1238,17471
39830,-7516,11428,-11176,20632,2400,19132
39853,-8476,10676,-8108,20936,1210,20592
39876,-11396,9660,-4500,20909,2287,21971
39899,-15964,9136,-404,19807,3970,22671
39920,-22300,9228,3132,17494,5547,22022
39943,-30884,8532,5728,13930,5991,19044
39964,-32768,7384,6352,9633,5206,13034
39986,-32768,7008,4224,5594,3606,4106
40008,-32768,10076,-1388,3128,4477,-7185
40030,-32768,13352,-6352,2426,2254,-19629
40053,-32768,17356,-10256,3472,2754,-31515
40074,-32768,23192,-11744,5320,1806,-32768
40097,-28012,28688,-9276,5191,-6984,-32768
40119,-12572,26944,-8004,1787,-16650,-32768
40140,3104,21260,-10536,-1874,-18077,-32768
40162,14964,11520,-10580,-4008,-14187,-32768
40184,21792,3788,-11504,-6083,-10973,-31520
40206,21692,-1588,-14556,-6408,-3409,-19828
40228,17480,-4336,-17724,-4410,6744,-10041
40251,11484,-5256,-18672,-2056,10348,-3251
40273,8256,-6440,-19108,-91,6312,1351
40295,4576,-7096,-16648,2317,2902,4956
40317,500,-7408,-11092,4491,2460,7673
40339,-4204,-7064,-3488,4902,2284,9561
40361,-10100,-6524,5360,2907,1197,10563
40383,-15664,-5056,12884,-1606,-2430,10471
40404,-20300,-2968,21136,-7909,-3464,9369
40426,-21268,-464,24540,-16662,-4063,7499
40448,-18924,3448,21784,-25617,-3142,5952
40470,-15820,8204,14320,-32768,-3089,5615
40493,-14124,12076,2276,-32768,-4682,6035
40514,-14088,15588,-9064,-32768,-5173,6267
40537,-15032,17484,-18248,-32768,-9176,6289
40558,-16020,17716,-26944,-32768,-9036,5617
40581,-16028,16288,-32736,-26567,-8670,4655
40603,-14996,15736,-32768,-18846,-10021,4056
40624,-13032,15672,-32768,-10761,-9099,4006
40647,-11076,16032,-32768,-3199,-6696,4692
40668,-9340,15996,-30376,3462,-4934,5854
40690,-7712,15604,-27324,9260,-4444,7372
40713,-5892,15284,-24000,14379,-4473,9120
40735,-3876,15160,-20308,18838,-4179,11342
40757,-2868,15316,-16408,22519,-3033,14034
40778,-2500,16112,-12584,25221,-2104,16975
40800,-3816,16588,-9828,27332,852,20126
40822,-6724,16432,-7552,28759,4672,22926
40845,-10848,16520,-5492,29253,7016,25027
40866,-15272,16560,-2244,28738,6894,26077
40888,-21116,17056,2040,26868,6695,25790
40911,-27836,16740,4852,23429,7652,23493
40933,-32768,15932,6128,18675,5310,18622
40955,-32768,12392,4364,13704,1041,11377
40977,-32768,9644,608,10711,3213,2837
40999,-32768,9820,-2960,9299,5894,-6755
41020,-32768,11720,-5740,8741,4103,-17666
41042,-32768,15136,-6532,9160,4825,-28524
41064,-32768,22244,-3852,8785,1926,-32768
41086,-30640,25332,196,5450,-6077,-32768
41109,-21916,27704,448,-347,-11203,-32768
41130,-9664,29892,-3932,-5647,-14148,-32768
41152,2652,22456,-6588,-9760,-17183,-32768
41175,12880,15672,-9340,-14066,-19763,-32768
41197,20660,7572,-16568,-15592,-13812,-32768
41219,23636,744,-21248,-13378,-2940,-22205
41240,22932,-3016,-25744,-9738,3732,-10179
41262,17336,-3976,-27588,-5508,5683,-5
41285,10312,-2672,-27544,-1184,5839,6943
41307,3736,-1352,-25576,2717,6186,10886
41328,-768,-572,-22804,5975,6844,12966
41350,-4376,-656,-19224,8165,6119,14160
41372,-7500,-1620,-15540,9657,5144,14826
41394,-10384,-2752,-11620,10939,6046,15335
41416,-13540,-3324,-6124,11430,6671,15486
41438,-16176,-3212,-744,9739,3589,14917
41460,-18232,-3848,3576,6748,1255,13620
41483,-19732,-4076,6772,2837,1581,11925
41505,-20304,-4060,9092,-1944,1145,10091
41526,-21068,-2908,11416,-7252,-952,8093
41548,-21104,-784,13292,-13848,-6435,5977
41570,-19916,1872,12096,-20222,-9568,4439
41593,-18364,4752,8616,-25414,-8471,3428
41615,-16472,7680,4072,-29578,-8138,2993
41637,-15072,10612,-2004,-32349,-10063,3056
41659,-14924,12200,-8292,-32768,-10640,3561
41681,-14860,13220,-14416,-31142,-8748,3891
41702,-15556,13788,-20664,-27640,-7694,3935
41724,-15636,13816,-24848,-22378,-8828,3734
41747,-14832,14196,-26768,-16129,-8835,3821
41768,-13460,14584,-27608,-9347,-3723,4201
41791,-11796,15724,-27216,-3007,-1387,4855
41813,-10404,16440,-25516,2549,-2991,5837
41835,-9088,16104,-23124,7449,-3655,6888
41857,-7204,15548,-21040,12010,-2580,8216
41879,-5748,14884,-18732,16165,-2290,10035
41900,-4704,15524,-15328,19758,-2692,12054
41922,-3508,15968,-11536,22254,-4446,14403
41945,-3596,15968,-9252,24191,-3377,17085
41966,-5708,16224,-7752,25779,1985,19747
41988,-9580,16228,-6676,26506,4504,21664
42010,-14036,16188,-5184,26814,4121,22576
42033,-19772,16356,-3200,26631,6294,22245
42054,-26224,16456,-972,25311,8113,19985
42076,-32216,14820,2096,22521,5460,15309
42099,-32768,13136,5348,18484,2031,8516
42121,-32768,11484,7152,13779,815,821
42142,-32768,10628,7248,9327,846,-6725
42165,-32768,10888,4876,5674,3020,-14273
42187,-32768,12572,1404,3151,5157,-22518
42208,-32768,17396,-2360,1574,3634,-31451
42230,-32768,21648,-3360,-270,-3535,-32768
42253,-26312,25520,-4268,-3573,-11782,-32768
42275,-15068,26216,-6036,-7494,-18082,-32768
42298,-4676,23772,-9012,-11316,-22595,-32768
42319,4728,17832,-12112,-14075,-23856,-32768
42341,10872,10192,-15724,-15429,-22621,-32768
42363,13532,3616,-20324,-14437,-16033,-24025
42385,12740,-992,-24252,-10439,-6710,-13337
42407,8424,-3260,-25436,-4964,1112,-4509
42429,2116,-3460,-23924,334,6631,1439
42451,-2400,-3056,-22512,4536,9124,4967
42473,-5996,-2756,-22020,7965,9805,6979
42494,-9504,-2896,-21208,11908,13168,8203
42516,-13072,-1936,-18384,15494,17311,8360
42538,-15640,-2312,-14576,17565,17644,7706
42560,-17792,-3212,-10868,18253,13197,6528
42582,-19660,-4540,-7852,18576,9635,4470
42605,-20636,-5000,-4072,18827,9244,2056
42627,-21032,-4412,2172,18090,7675,-439
42649,-20124,-5900,9704,14560,-2089,-2564
42671,-19224,-6388,16024,9945,-9397,-4360
42693,-16916,-6216,25008,4565,-9994,-5761
42715,-11944,-6516,32767,-4863,-12558,-5835
42737,-4628,-4168,32767,-18319,-15805,-2890
42759,472,1184,32767,-31142,-11970,3313
42781,596,9760,27148,-32768,-1773,9943
42803,-2836,19108,16796,-32768,6857,14265
42824,-6724,26084,4252,-32768,5991,16093
42847,-11796,29272,-11044,-32768,2889,16052
42868,-16932,27860,-26232,-32768,-78,14516
42890,-21304,24816,-32768,-32768,-2949,11415
42913,-22964,22264,-32768,-30294,-8476,7654
42934,-21324,22428,-32768,-22163,-10506,4300
42956,-17752,21768,-32768,-15192,-8934,2017
42978,-13316,20604,-32768,-8138,-7188,1003
43000,-9000,19312,-32768,-189,-6419,1469
43022,-5088,18108,-32768,7601,-8261,3194
43044,-1744,17656,-27860,14885,-9137,5838
43067,1264,18740,-21124,20695,-9726,9172
43089,3628,20152,-14412,24483,-10957,13040
43111,4532,22232,-9400,26734,-10145,17418
43133,3116,23584,-6388,27983,-8047,21769
43155,-812,24432,-5224,28618,-6072,25300
43177,-5320,24548,-4952,28725,-7900,26806
43199,-9388,24536,-4040,29544,-8716,26652
43221,-13628,23592,-2892,31762,-3714,26602
43243,-18624,25296,-164,32767,2387,26365
43264,-24252,26140,4252,32767,3759,25003
43286,-30916,24936,8764,30085,2402,21643
43309,-32768,22280,12324,25541,1627,15907
43330,-32768,18356,15260,19597,-1815,7896
43352,-32768,15240,16456,12826,-5583,-1187
43374,-32768,14108,14352,6441,-5777,-9839
43397,-32768,13452,9212,1568,-5027,-17230
43419,-32768,14316,2560,-900,-803,-23216
43441,-32768,16124,-3792,-1128,3227,-28856
43463,-32768,18292,-8648,-512,2603,-32768
43485,-31084,22880,-10808,661,1,-32768
43507,-23820,24456,-11704,598,-4924,-32768
43530,-17760,25432,-13852,600,-5455,-32768
43551,-9228,27724,-15852,2343,-2508,-32768
43573,600,20704,-15200,3759,-3908,-32768
43595,10748,13424,-13000,3188,-9210,-32768
43617,18988,5128,-13140,1639,-12329,-32768
43639,23804,-2564,-13384,2093,-6003,-24953
43661,21796,-6212,-10604,2724,1509,-13756
43683,16924,-7224,-8148,1441,2253,-4588
43704,11984,-7356,-9804,214,2141,2305
43727,5344,-7080,-11156,833,4928,7526
43749,-2048,-6172,-10392,1862,6951,10144
43771,-8024,-5324,-9028,2497,6680,10947
43792,-12404,-5288,-7500,2514,2944,10578
43815,-15568,-5584,-7492,2592,1071,9421
43836,-17516,-6412,-6652,2842,1450,7689
43859,-18624,-6808,-5532,2691,1326,5648
43881,-17844,-7632,-4316,2177,783,3863
43903,-15584,-8488,-3808,1216,-1074,2918
43924,-13188,-8912,-4036,387,-1374,2811
43947,-12128,-8828,-3308,-15,1854,3242
43970,-11444,-8628,-1468,-1043,3201,3834
43990,-11652,-8232,1628,-2879,853,4670
44013,-12268,-7008,6796,-5428,-1636,5264
44035,-12404,-5588,11672,-9353,-2713,5894
44056,-13360,-3172,15160,-14793,-2251,6523
44079,-14940,788,16256,-21259,-1894,6642
44100,-14320,4664,14616,-27984,-2250,6612
44123,-12420,7560,6988,-32768,-297,7301
44145,-12436,9804,-3060,-32768,2093,7736
44167,-13204,11724,-13780,-32768,-857,7666
44189,-13532,11888,-22988,-30635,-2394,7401
44211,-14580,11472,-27516,-25003,-3444,7039
44233,-15552,12128,-29232,-19029,-2998,6232
44255,-15212,12840,-29356,-13565,-3293,5235
44276,-14188,13480,-29064,-8816,-5040,4605
44299,-12620,13840,-29244,-4095,-4547,4474
44321,-10700,13200,-29656,1251,-1849,5016
44343,-8612,12336,-28456,6789,-2060,6270
44365,-6384,12680,-24792,12100,-2455,8165
44387,-4760,13160,-20244,16293,-1965,10641
44408,-3884,13328,-16244,19534,735,13551
44430,-3944,13908,-12504,21451,2304,16510
44452,-5156,13296,-10280,22571,2874,19284
44474,-7652,13024,-7956,23494,5262,21543
44497,-10680,12704,-5508,23522,5734,23054
44519,-14544,12236,-3120,22730,6036,23868
44541,-20044,11904,-928,21040,6771,23428
44563,-26396,11540,740,18426,6622,20957
44585,-32616,9720,1496,15266,4344,16261
44607,-32768,8096,1608,12296,3862,9673
44628,-32768,8352,452,9589,3053,1077
44651,-32768,8684,-1928,7393,1276,-9043
44673,-32768,10652,-5212,6355,1769,-19907
44695,-32768,15932,-8284,6794,2524,-30308
44718,-32768,19444,-6952,6732,-3251,-32768
44739,-21732,19800,-5536,4426,-10127,-32768
44761,-12036,18404,-6580,1287,-12437,-32768
44783,-2396,16192,-9204,-684,-9542,-32768
44804,6652,10096,-9656,-1624,-6434,-32768
44827,13196,3652,-11648,-3528,-7447,-30081
44849,16552,-1208,-15380,-4036,-4557,-20316
44871,15564,-3880,-18288,-2351,3716,-10900
44893,12104,-4836,-19052,-256,8658,-3125
44915,8472,-5496,-21040,1561,7586,2804
44936,3756,-5844,-22200,4430,6961,7125
44959,-1456,-5864,-20012,7638,6393,9651
44981,-6748,-5776,-14972,10264,5462,10574
45003,-12296,-5776,-7464,11570,3417,10228
45025,-17740,-5072,2188,10737,457,8678
45046,-22424,-4596,12564,6818,-2991,6119
45069,-26624,-4140,21744,-68,-4486,2639
45091,-26560,-3604,26208,-9438,-6786,-1176
45113,-22192,-1900,24956,-19089,-8108,-3812
45135,-15880,1080,20516,-27701,-8694,-4309
45157,-10296,5084,14216,-32768,-7966,-2601
45179,-7336,9656,6992,-32768,-5343,398
45200,-7392,13580,-472,-32768,-3739,3263
45223,-8216,17088,-8496,-32768,-3320,5453
45245,-9936,19672,-17244,-32768,-5106,6691
45267,-12408,19484,-26804,-32768,-5135,6936
45289,-14052,18928,-32768,-29230,-4631,5958
45311,-14396,17828,-32768,-21365,-8206,4765
45333,-13004,17800,-32768,-13344,-10176,3985
45355,-10676,17816,-32768,-5686,-9014,4021
45377,-7512,17632,-32768,1474,-7183,4976
45399,-4472,17232,-30512,7958,-7824,6902
45421,-1244,16860,-25912,13617,-10245,9586
45443,1888,17504,-20720,18490,-11356,13022
45465,3812,18984,-15384,22309,-11268,17335
45486,4796,21200,-11064,24906,-11551,21960
45509,4580,22712,-8564,27081,-9874,26569
45531,1284,23956,-6444,29123,-2722,31191
45553,-3956,25972,-5700,30150,2265,32767
45575,-10856,26816,-4656,30908,3373,32767
45597,-19952,28008,-2220,31081,4276,32767
45618,-30552,26832,1732,29334,5079,32159
45640,-32768,24768,6952,25371,4919,24618
45663,-32768,21056,11352,19432,21,13733
45684,-32768,17576,13824,12455,-3997,1341
45706,-32768,15912,11336,5588,-5515,-10544
45728,-32768,17392,3612,966,-2734,-20713
45751,-32768,18952,-8052,304,1895,-28971
45773,-32768,21188,-17764,4540,7819,-32768
45794,-32768,28328,-19068,10888,6935,-32768
45817,-28220,28756,-11332,13603,-2041,-32768
45839,-22304,31168,-4172,11782,-6974,-32768
45861,-13332,31868,-1576,7044,-12154,-32768
45883,304,29452,-3920,1636,-18268,-32768
45904,14780,18000,-8208,-3030,-19844,-32768
45926,23860,7504,-11100,-5109,-13806,-32768
45949,26768,-836,-13664,-5350,-6971,-27635
45971,24388,-4908,-14536,-4691,-2742,-15207
45993,19688,-6028,-15208,-3811,-839,-5160
46014,13776,-6164,-16004,-2646,1060,2405
46037,7388,-5136,-16060,-986,6038,7648
46059,2036,-4256,-15792,343,9262,10805
46081,-1716,-3768,-15868,1702,9562,12721
46103,-5180,-4608,-14584,3225,6579,14048
46125,-9448,-5192,-12352,4594,2360,14861
46147,-14700,-5244,-8084,5768,1535,14646
46169,-18508,-5016,-3512,5767,1894,13322
46190,-22336,-4908,2280,3706,639,11139
46213,-24412,-5232,6960,-177,-1797,8169
46234,-25040,-5212,10496,-4664,-3432,4927
46257,-23320,-4336,13440,-9957,-5287,2025
46278,-19984,-3036,15044,-15800,-6825,392
46301,-16708,-364,14904,-22351,-9059,293
46323,-14128,3212,12572,-28119,-9020,1335
46345,-12252,6920,8272,-32631,-7111,3019
46367,-11688,10228,2040,-32768,-4955,4821
46388,-12024,13168,-5408,-32768,-4074,5876
46411,-13160,15280,-12344,-32768,-4458,6360
46433,-14036,16028,-20796,-32605,-4042,6460
46455,-15676,15552,-28096,-27032,-4222,6104
46477,-16404,14432,-32352,-19591,-5573,5185
46499,-16264,15340,-31772,-12186,-7370,4189
46521,-14836,15972,-29132,-5712,-6959,3667
46542,-13128,16360,-27040,47,-3721,3758
46564,-11600,15836,-25744,5467,-2025,4320
46586,-10056,15336,-23372,10741,-2972,5155
46609,-7728,15260,-19500,15492,-4052,6461
46631,-5168,15500,-15104,19140,-4930,8645
46653,-3580,16308,-10936,21552,-4357,11713
46675,-3300,16524,-8356,23186,-2667,15189
46697,-4692,16788,-7132,24718,1127,18679
46719,-7652,17036,-6316,25508,1485,21321
46741,-12064,17228,-4832,25832,-598,22536
46763,-17360,16296,-2688,25107,-3504,21805
46785,-21884,13588,-1312,24012,-3158,19333
46807,-24732,10848,-612,23331,-56,16272
46829,-27384,9608,1616,22938,2418,13044
46851,-30144,8816,5524,21232,2031,9102
46873,-32768,7852,9216,18101,3395,4524
46895,-32768,8248,12464,13335,3684,-1086
46916,-32768,8536,12980,7244,1525,-8094
46938,-32768,10444,9716,1627,878,-16599
46960,-32768,11984,2452,-1911,807,-25340
46983,-32768,14700,-3600,-3502,-2579,-32768
47005,-28504,18128,-6172,-4530,-8208,-32768
47028,-17436,20116,-6968,-6133,-11864,-32768
47049,-6864,18180,-8368,-8074,-13640,-32768
47071,2348,13220,-12168,-9439,-12819,-32768
47093,8484,7500,-17256,-9002,-9644,-31878
47114,10916,2276,-22056,-6148,-3771,-23497
47137,10100,-1536,-25624,-1304,3968,-15044
47159,7292,-3944,-25860,4148,9364,-7766
47180,2888,-5324,-23524,8759,9458,-2175
47203,-2276,-6112,-19320,12933,9043,1702
47225,-7432,-5676,-13804,16391,11070,3983
47247,-11980,-4388,-7448,18555,13851,4882
47269,-16320,-4820,-172,18053,11271,4616
47290,-19924,-5492,5820,14936,2901,2778
47313,-23392,-5960,10984,10938,-3434,-364
47335,-23472,-6016,15656,7192,-4892,-4295
47358,-19180,-6320,23752,2128,-8410,-7474
47379,-11244,-6800,32364,-6326,-16437,-8111
47401,-1508,-5960,32767,-17795,-23376,-4370
47423,4260,-2160,32767,-28265,-18245,4013
47446,2464,5860,27828,-32768,-4531,12617
47467,-4016,15476,21896,-32768,7434,17081
47489,-8520,25096,13384,-32768,7519,18232
47510,-11112,31004,-320,-32768,1421,18331
47533,-14704,32767,-15328,-32768,-2591,17641
47554,-18696,31612,-30320,-32768,-3062,15624
47577,-22316,28080,-32768,-32768,-5397,12414
47598,-24000,24604,-32768,-28077,-12862,8695
47621,-23068,23360,-32768,-18356,-14583,5290
47642,-19636,23088,-32768,-9722,-12204,2954
47665,-16176,22004,-32768,-1394,-10653,1998
47687,-12272,20752,-32768,7442,-10178,1996
47709,-7572,20704,-30788,16204,-11038,2817
47731,-1948,21488,-23692,23408,-13310,4510
47753,3800,22984,-16252,28701,-14150,7745
47775,7004,24460,-9512,32302,-11605,12838
47797,7940,26984,-4500,32767,-9262,18734
47819,7312,28328,-1804,32767,-9796,24319
47840,2944,29592,-376,32767,-5518,29403
47862,-3452,31908,1264,32767,2282,32767
47885,-11156,32132,2312,32767,5637,32767
47906,-19240,32076,5044,32767,5061,32767
47929,-27936,31772,9040,32767,7738,32397
47951,-32768,28524,13376,30084,4204,27075
47973,-32768,23852,17316,23047,-1538,18977
47996,-32768,19048,17236,15482,-3104,9253
48016,-32768,16824,12456,8988,-4497,-866
48039,-32768,16608,6868,4899,-5321,-10314
48061,-32768,17032,1204,3176,-3048,-18491
48083,-32768,18900,-4452,3412,941,-25778
48105,-32768,22608,-10056,5075,2805,-32768
48127,-32768,29748,-12252,7717,1255,-32768
48149,-32768,32767,-11012,8956,-4797,-32768
48171,-32296,32767,-9696,8181,-9381,-32768
48193,-15732,32767,-11780,6019,-13265,-32768
48214,5768,32767,-12348,4188,-13328,-32768
48237,25640,25848,-11044,526,-15338,-32768
48259,32767,9504,-12772,-1869,-11726,-32768
48281,32767,-1500,-13508,-1692,-4292,-29067
48303,26664,-5340,-12568,-1344,233,-15820
48325,17412,-5716,-12076,-975,3186,-6926
48346,11092,-5660,-11884,-903,2081,-1406
48369,7528,-6084,-12676,-407,1302,2548
48390,4952,-6688,-12992,783,2767,6324
48412,972,-7052,-12076,2062,4070,9597
48434,-3908,-7376,-10104,3193,4544,11620
48457,-8060,-8064,-7168,3747,3222,12148
48478,-11100,-9000,-2060,3823,838,12203
48501,-15612,-9332,5080,2730,-712,11305
48523,-19444,-9432,14004,-507,-3027,9520
48545,-20952,-8176,22436,-6366,-5067,7429
48567,-19804,-6220,28036,-14514,-6553,5979
48589,-16708,-2452,27964,-24218,-7819,5871
48610,-12804,2360,22284,-32376,-4364,7184
48633,-10460,8180,13076,-32768,-625,9315
48655,-10968,13016,4524,-32768,-856,11073
48677,-13524,16744,-4796,-32768,-3515,12025
48699,-17176,18900,-15336,-32768,-2034,11466
48722,-19252,19512,-22728,-32768,-3476,9351
48743,-20348,19976,-28616,-31754,-7799,7101
48766,-20116,19252,-32768,-25067,-7779,4881
48786,-18684,18024,-32768,-17464,-6351,3076
48809,-16992,17740,-32768,-9748,-6639,1945
48831,-14624,17388,-32768,-2460,-7666,1378
48853,-11604,16544,-31444,4503,-6425,1645
48875,-8196,15744,-27476,11141,-3706,2801
48897,-4728,15592,-22928,16481,-3463,5112
48919,-1892,15984,-18312,20717,-3179,8523
48940,200,16628,-13776,23632,-4163,12419
48962,364,17092,-11140,25826,-2614,16685
48985,-2668,18092,-9220,27805,3693,20721
49006,-5952,17984,-8476,28990,4496,23580
49029,-8012,17364,-6332,29747,-387,25553
49051,-11220,17196,-1992,30461,547,27192
49072,-17228,18004,3492,29323,5716,27951
49095,-23024,16824,6924,25742,4538,26945
49117,-28628,14828,8364,21326,2095,23923
49139,-32768,11600,8504,17121,4202,18800
49161,-32768,8988,7060,12961,7425,11695
49182,-32768,9488,5200,8745,3624,1981
49204,-32768,10740,3220,4745,-2504,-8903
49226,-32768,12716,492,2294,-827,-18586
49249,-32768,17216,-2988,1377,1168,-27793
49271,-32768,22688,-4728,423,-4268,-32768
49292,-32768,26124,-5168,-1928,-11340,-32768
49314,-22340,27000,-7568,-4740,-14661,-32768
49337,-7464,25412,-11608,-6496,-11334,-32768
49359,6640,18720,-14172,-6602,-7223,-32768
49381,18328,10208,-16208,-7336,-10301,-32768
49402,23284,1992,-19172,-7008,-10189,-25556
49425,21184,-2624,-21424,-3535,221,-13480
49447,14456,-3912,-19916,581,10422,-3828
49468,7076,-3672,-18920,2800,11298,2508
49490,464,-3964,-19232,4879,9481,5899
49513,-4824,-4348,-19220,8017,10262,7328
49535,-8772,-4676,-16744,11473,12040,7643
49556,-11852,-4940,-11344,13449,9285,7279
49579,-13788,-5452,-5148,13627,3134,6456
49600,-16860,-5924,3108,12742,-104,5401
49623,-19752,-5432,13324,10032,-71,4139
49646,-21960,-5372,25308,4234,-2217,2199
49666,-20824,-4696,32767,-6175,-9456,353
49689,-17524,-1880,32767,-19209,-14646,-110
49711,-12988,3596,32767,-31045,-10799,1580
49733,-10384,10204,24600,-32768,-3729,4589
49754,-9940,17188,13128,-32768,1025,7143
49776,-10960,22952,1044,-32768,-224,8724
49798,-12968,26432,-11912,-32768,-3277,9347
49821,-14976,27572,-23268,-32768,-5103,9106
49843,-16276,25844,-30868,-32768,-6366,8212
49865,-17644,24836,-32768,-32007,-8248,6875
49886,-17924,23248,-32768,-23540,-8813,5161
49908,-16604,21780,-32768,-14787,-8107,3627
49931,-14188,21732,-32768,-5997,-8558,2792
49952,-10916,21180,-32768,2805,-9475,2749
49975,-6996,20408,-32288,11082,-10513,3618
49997,-3088,20448,-26132,18370,-10690,5496
50019,464,21708,-19504,23912,-11882,8275
50041,4128,23076,-13364,27725,-13331,11896
50062,6332,24120,-8732,30456,-13591,16381
50085,6676,25552,-4912,32635,-10810,21484
50106,5836,27304,-696,32767,-8546,27028
50129,2056,27956,2232,32767,-4529,32284
50150,-4564,29432,4112,32767,3789,32767
50172,-12756,29776,2696,32185,10624,32767
50195,-22736,29888,1964,29995,7688,32767
50217,-32768,28320,4784,27464,2978,32486
50238,-32768,25028,9276,23910,2783,24085
50261,-32768,21364,13448,18286,-964,13433
50283,-32768,18624,14672,11239,-7326,1636
50305,-32768,17276,10888,5077,-8178,-9144
50327,-32768,17212,4300,1406,-7145,-17890
50349,-32768,18788,-3052,734,-3970,-24968
50371,-32768,19916,-6440,1889,-1750,-30712
50393,-32768,22376,-8296,3017,-392,-32768
50415,-32768,26124,-9256,3641,-933,-32768
50437,-32088,30432,-10644,3536,-3066,-32768
50460,-24468,32767,-9888,3549,-6388,-32768
50481,-13960,32767,-10320,1704,-11446,-32768
50502,-2432,29128,-13032,628,-10415,-32768
50525,8388,22052,-14952,1487,-5034,-32768
50547,18104,12364,-12640,1589,-5620,-32768
50570,25052,2116,-12880,515,-7735,-32768
50591,24268,-3624,-12116,1184,-1496,-21367
50613,19176,-6376,-9240,1642,4476,-10876
50635,12140,-7028,-7496,753,5458,-3519
50656,7004,-7696,-8020,-310,4641,1415
50679,2260,-7796,-8800,-124,6056,5319
50700,-2720,-7256,-8380,309,7024,7622
50722,-6600,-7620,-8004,366,4598,8666
50745,-9360,-7884,-8288,471,2003,8812
50766,-12076,-8528,-7228,875,1150,8135
50789,-13700,-9088,-4936,1244,1214,7273
50811,-14660,-9516,-1844,705,678,6238
50833,-15136,-9884,1636,-852,-1480,5383
50854,-15156,-9724,6260,-2952,-3377,4755
50877,-15600,-8764,13312,-6111,-3257,4441
50899,-15492,-6664,19864,-12208,-5614,4368
50921,-14788,-3340,22920,-20103,-7325,5079
50942,-14456,1076,20920,-27922,-5598,6377
50964,-14304,6420,15452,-32768,-1608,7191
50986,-13224,11152,8424,-32768,-2089,7703
51008,-13784,15632,1120,-32768,-4743,8306
51031,-14700,18964,-6796,-32768,-4124,8624
51052,-16244,20516,-16384,-32768,-693,7928
51075,-16976,19920,-25012,-32768,-1940,6367
51097,-17952,18708,-30676,-29858,-6460,4961
51119,-19148,18572,-32768,-22742,-7720,3216
51141,-18424,17892,-32768,-15212,-6127,1487
51163,-16320,17492,-32768,-8127,-6404,405
51185,-13740,17148,-32620,-1257,-6851,237
51207,-10964,16416,-29924,5460,-5607,799
51228,-7988,15772,-25964,11589,-4837,1986
51251,-4764,15584,-20960,16559,-6019,3975
51273,-1936,16072,-15500,20031,-8230,6705
51295,820,17580,-11388,22334,-9456,10025
51316,2336,18600,-9860,24398,-7038,14384
51339,1920,20600,-9168,26488,-4474,19357
51360,-772,22420,-8292,28712,-1840,23976
51382,-4944,23676,-7416,30457,-1056,27321
51405,-8512,23896,-5920,31806,-3182,28767
51427,-10880,24004,-2936,32693,-4485,28975
51449,-13140,23500,32,32556,-2813,28707
51470,-16088,22744,2404,31024,-261,28007
51493,-19484,21252,4044,28479,653,26378
51515,-23188,19176,5744,25466,-760,23664
51537,-27224,16776,7736,22416,-541,19995
51559,-32768,14448,8864,19190,2035,15137
51581,-32768,12576,10528,14936,420,8478
51603,-32768,10784,11732,9776,-2081,752
51625,-32768,10464,10656,4375,-1880,-7139
51646,-32768,11120,5572,211,1117,-14881
51669,-32768,13100,-1808,-1822,3102,-22970
51691,-32768,18012,-9444,-948,5566,-31364
51713,-32768,23996,-14040,1679,5489,-32768
51735,-32768,28192,-15256,4050,2221,-32768
51757,-29700,32767,-14748,5675,-720,-32768
51779,-18940,32767,-13720,6116,-5622,-32768
51801,-5336,32767,-12724,5236,-11689,-32768
51823,10180,24452,-11616,3219,-14335,-32768
51846,22452,13300,-8940,839,-13434,-32768
51867,30252,3424,-7800,-2403,-11936,-32768
51889,30708,-3396,-8000,-4976,-6619,-20482
51911,24624,-5092,-8396,-6337,-913,-7983
51932,16692,-4124,-10080,-7114,2546,825
51955,9880,-3064,-12800,-7097,4679,6415
51977,5096,-2692,-15744,-6382,5291,10115
51998,1392,-2608,-17976,-4599,5697,12966
52020,-3180,-2760,-19172,-2240,5118,15105
52042,-8624,-2532,-18532,84,4269,16186
52064,-13240,-2652,-16844,1885,3064,15844
52087,-16900,-3456,-15308,3537,1894,14501
52109,-19600,-3776,-13348,4887,1090,12137
52130,-20176,-4696,-10764,5742,468,9395
52153,-17764,-5892,-7928,5746,-997,7395
52175,-14596,-6912,-4604,5225,-1647,6795
52196,-13128,-7888,-148,3830,-674,7235
52219,-14392,-7876,4576,952,86,7593
52240,-16708,-7116,8616,-2933,728,7164
52262,-17820,-6212,10984,-7685,262,6151
52285,-17548,-4836,10392,-12541,-724,5157
52307,-17696,-2752,8440,-16895,-1315,4067
52328,-16912,-284,3576,-20625,-2010,3071
52351,-15892,1452,-1192,-22443,-1306,2453
52373,-15664,4216,-4396,-23870,-2330,1829
52395,-14864,6376,-9096,-24599,-2731,1137
52417,-13712,7568,-13972,-23859,-3190,733
52439,-12776,8520,-18796,-21649,-3199,811
52461,-12056,9400,-22720,-18172,-2455,1088
52482,-11312,9740,-25212,-13982,-2163,1505
52504,-10180,10312,-25408,-9822,-3064,2134
52527,-9436,11136,-24732,-5815,-3017,3137
52549,-8612,11952,-23916,-2110,-2126,4405
52571,-7796,12372,-23780,1546,-1079,6029
52592,-7052,12228,-23128,5241,-1374,7811
52614,-6488,11560,-22020,9026,-1609,9760
52637,-6660,11656,-19824,12885,565,11626
52658,-6820,12216,-16708,15828,1476,13498
52681,-6824,12528,-13356,17485,-340,15156
52703,-7664,11372,-11060,18714,-597,16684
52725,-9756,10472,-8808,19598,3217,17831
52747,-11472,9264,-6292,19446,3004,18518
52770,-12868,7960,-4108,18448,-533,18726
52791,-15436,6332,-2368,17702,877,18836
52812,-19044,6104,-712,16432,5307,18178
52834,-23592,4740,-84,14532,5883,16417
52857,-28612,4416,1492,12290,3807,12942
52878,-32768,3856,3340,9416,2177,7693
52900,-32768,3708,4576,5661,1737,808
52923,-32768,5808,3908,1377,844,-7724
52944,-32768,9544,336,-2743,-1449,-17943
52967,-32768,16032,-6028,-5154,-3936,-29032
52988,-32768,21412,-13048,-5165,-6508,-32768
53011,-32104,24844,-18964,-3328,-8021,-32768
53032,-18484,23784,-21600,1347,-3024,-32768
53054,-5232,22016,-16956,5198,-2440,-32768
53077,7072,14988,-11620,4132,-9961,-32768
53099,16428,7440,-9908,1264,-11661,-32768
53120,20088,464,-10528,474,-1745,-23956
53142,19696,-3952,-9144,142,5448,-13295
53165,16208,-5320,-9892,-650,6415,-4059
53187,11312,-5600,-12084,-574,7697,3333
53209,4724,-4992,-12732,458,9576,8778
53230,-2128,-4780,-14764,1691,11057,12025
53253,-9164,-4592,-15636,3485,12785,13027
53275,-15172,-4392,-15380,5136,10966,11906
53297,-18960,-4876,-13924,6490,5669,9102
53319,-19472,-5536,-11808,7610,369,5635
53341,-18024,-6692,-9004,8442,-1595,2697
53362,-16296,-7840,-5700,8733,20,910
53385,-13620,-8400,-1868,7747,154,150
53407,-11196,-9624,1228,5800,-738,544
53428,-10556,-10108,5116,3298,-775,1644
53451,-11476,-9904,10128,12,-1155,2580
53472,-13052,-8700,16528,-4607,-2655,3229
53495,-14592,-5612,23200,-11555,-4784,3396
53517,-14564,-1344,25736,-20565,-5194,3678
53539,-13160,3776,22440,-29871,-4502,4726
53561,-12184,8696,13548,-32768,-1271,6142
53582,-12476,13184,3240,-32768,113,6982
53605,-12756,16652,-7012,-32768,-2574,7279
53627,-14896,18428,-16936,-32768,-4853,7042
53648,-15932,19464,-26348,-32768,-4242,5844
53670,-15624,18768,-32768,-29274,-3653,4221
53692,-14116,18060,-32768,-22046,-6566,2806
53715,-12060,17088,-32768,-14695,-9421,2272
53737,-9600,16716,-32768,-7388,-8284,2909
53759,-7676,16500,-32544,-531,-6190,4352
53781,-6456,15816,-29692,5661,-5902,6377
53802,-5544,15260,-25744,11353,-5813,8549
53825,-4292,15744,-20312,15953,-6308,10876
53847,-3232,16388,-15488,19279,-6604,13458
53870,-2232,17488,-11296,21367,-6525,16314
53891,-2812,17340,-8332,22860,-4696,19421
53913,-5928,17940,-6028,23823,628,22013
53935,-9256,17108,-5152,24058,465,23525
53956,-12520,15820,-3828,24276,-1451,24095
53979,-16356,15108,-1564,24065,262,23637
54000,-19772,13872,-84,23007,3371,22591
54023,-23696,13504,1364,21128,3681,20763
54045,-28232,12488,3096,18524,1555,17565
54067,-32324,11192,3536,15534,345,12750
54089,-32768,11124,2080,12944,194,6989
54111,-32768,10632,-312,11201,1084,431
54133,-32768,11736,-2748,9944,1233,-7413
54154,-32768,14116,-3092,9255,1119,-16796
54176,-32768,16628,-1880,7498,-2067,-27380
54199,-32768,20812,-1148,4924,-5141,-32768
54221,-32768,25920,-100,1481,-9745,-32768
54242,-20612,27468,-928,-3272,-15168,-32768
54264,-7952,24488,-4208,-8237,-18699,-32768
54286,2768,20472,-9328,-12619,-19700,-32768
54308,10836,13796,-17072,-13506,-12831,-32768
54330,16092,6580,-23464,-10038,-475,-32396
54352,17800,-940,-27116,-4862,7350,-21870
54374,14792,-4100,-28160,778,12031,-12249
54396,9568,-4824,-27388,5898,14985,-5330
54419,6104,-5456,-25852,10091,14748,-576
54441,3384,-5944,-23232,13858,12609,3086
54463,648,-5876,-18396,17021,9709,5913
54484,-1772,-6132,-11900,18962,5244,8092
54507,-5748,-6360,-4012,19539,726,9660
54528,-10532,-5896,4940,18458,-1861,9991
54551,-16244,-6328,15488,14930,-3843,9123
54574,-22480,-6568,25880,8244,-7568,6639
54595,-23996,-6780,32767,-1186,-10760,3209
54617,-21396,-5388,32767,-11704,-10320,785
54639,-15896,-3172,32767,-22568,-8138,488
54661,-10628,1376,30564,-32768,-8224,2633
54683,-7532,7912,24976,-32768,-6979,6209
54705,-7340,16336,19720,-32768,-2834,9996
54726,-8756,24972,11580,-32768,915,12562
54748,-9572,31736,2944,-32768,-1201,13853
54770,-11524,32767,-9876,-32768,-7504,15077
54793,-15236,32767,-24964,-32768,-4460,15199
54815,-19420,31756,-32768,-32768,-1987,13105
54837,-22912,26308,-32768,-32589,-9579,9980
54859,-24476,23092,-32768,-19470,-13563,6482
54881,-22096,22716,-32768,-8126,-11037,2844
54902,-17464,22936,-32768,349,-9154,551
54925,-12828,22384,-30288,7470,-8779,-219
54947,-7968,20988,-25964,13899,-9796,484
54970,-2892,19976,-20776,19618,-11203,2441
54991,1840,19932,-14872,24043,-12579,5798
55012,4944,20760,-9604,27208,-11973,10335
55034,6072,21980,-5928,29244,-9702,15423
55057,5284,23304,-3440,30879,-6422,20821
55079,2392,24380,-1556,31957,-6304,25473
55100,-872,25128,680,32746,-7633,28798
55123,-5176,24984,3112,32767,-4303,31235
55144,-11636,26192,4612,32083,616,32523
55167,-19224,25612,4976,30425,4302,32336
55188,-26592,25844,6656,27908,2918,29688
55211,-32768,22960,8664,24347,1145,24485
55233,-32768,20196,9440,20027,2627,17004
55255,-32768,17852,8704,14954,-1332,7686
55276,-32768,15604,7008,10252,-5515,-1738
55298,-32768,14676,2192,7066,-4824,-9579
55322,-32768,14148,-3544,6653,-1732,-15768
55343,-32768,13900,-6948,8027,2107,-20664
55364,-32768,15280,-7636,10229,7229,-25521
55387,-32768,20308,-4516,12041,9878,-31618
55409,-32768,26080,756,11200,6260,-32768
55431,-32768,31016,4436,6703,-1447,-32768
55452,-27892,32767,2052,719,-6539,-32768
55475,-14244,32767,-4288,-3472,-8511,-32768
55497,-820,32767,-7868,-6179,-11141,-32768
55519,12388,23084,-12468,-9240,-13821,-32768
55541,21316,13460,-17528,-8869,-5405,-32768
55562,25508,4956,-19324,-6955,1106,-32768
55584,25580,-748,-19912,-5496,2102,-20631
55607,22028,-3604,-21512,-3815,1229,-9756
55629,16620,-4132,-22000,-1082,2748,-1447
55650,10344,-3844,-20636,1627,4740,4476
55673,5144,-4292,-18496,3285,4014,7894
55695,1484,-5316,-17200,4913,2669,10175
55716,-1184,-6644,-13296,7012,2129,12348
55738,-5276,-7192,-6676,8515,2833,14374
55760,-11664,-7732,2084,7828,1711,15331
55783,-19228,-7156,11808,4269,-1275,14330
55805,-24868,-6620,20556,-1757,-2401,11424
55827,-28020,-5472,27660,-10588,-4245,7237
55849,-27068,-2432,29364,-20779,-7117,3544
55871,-23408,1876,24696,-30427,-9934,1641
55893,-19512,7460,16384,-32768,-8247,1353
55915,-16500,12988,7784,-32768,-7191,1770
55936,-14316,18196,-664,-32768,-9401,2686
55958,-13664,22324,-10792,-32768,-7929,3546
55981,-13100,23816,-21564,-32768,-5309,3682
56003,-12332,22332,-32544,-32768,-7403,3987
56025,-12600,20652,-32768,-27919,-10844,4501
56047,-11856,19732,-32768,-17575,-9294,5038
56069,-10116,19656,-32768,-7876,-6440,5864
56091,-8504,20380,-32768,291,-6393,7163
56113,-7348,20624,-30112,7326,-7505,8664
56135,-5940,19892,-26196,13450,-8170,10156
56156,-4272,20108,-22324,19400,-5165,11911
56178,-1776,21168,-18228,24105,-6138,14182
56201,692,22496,-13460,27210,-10651,16970
56222,2740,23444,-8952,29407,-13437,20005
56244,2468,23284,-6576,31617,-7015,23843
56266,-868,24444,-5140,32634,2168,27975
56288,-3048,25100,-5632,32767,3733,31385
56311,-7832,24744,-3672,32767,4402,32767
56332,-18376,26928,1320,32767,8673,32767
56355,-30496,26064,6760,29514,6002,32767
56376,-32768,23104,12404,23086,-1431,25590
56398,-32768,18620,14620,15899,-4301,14021
56420,-32768,15828,11092,9383,-4043,1600
56442,-32768,15744,3460,5058,-3307,-10616
56465,-32768,18400,-6436,4233,905,-21548
56486,-32768,21912,-14712,7229,5685,-31337
56508,-32768,26340,-17148,11817,5623,-32768
56531,-32768,32767,-12764,14610,1816,-32768
56552,-26488,32767,-6748,12230,-10940,-32768
56575,-12808,32767,-6976,5995,-21705,-32768
56597,2756,29344,-12612,1505,-22382,-32768
56619,16880,19092,-13940,753,-14873,-32768
56640,27476,8972,-12836,-456,-11650,-32768
56662,31244,-636,-13752,-1374,-7803,-28691
56685,28960,-5596,-13904,-967,-2717,-14832
56707,22392,-6424,-13128,-40,2407,-3381
56729,13008,-4828,-11004,348,5422,4747
56750,5620,-3412,-11640,242,6079,9471
56772,-536,-3644,-12680,874,6792,12410
56795,-6612,-3792,-13480,2073,7793,13737
56817,-11824,-4124,-12300,3514,7197,13710
56839,-16348,-4796,-10260,4430,3691,12485
56861,-19116,-5276,-7748,4835,1131,10283
56882,-19904,-6080,-5540,4499,114,7634
56904,-19700,-6852,-3964,3458,848,5208
56927,-19052,-7396,-3912,2018,1453,3275
56948,-18052,-7940,-4808,663,283,2033
56970,-16964,-8136,-6044,6,26,1146
56992,-16344,-8012,-6664,-512,900,381
57015,-15508,-7768,-8032,-724,2494,-363
57037,-14540,-7732,-8908,-807,2014,-1014
57058,-13584,-8020,-9328,-442,1057,-1445
57080,-13628,-8148,-8040,130,1363,-1683
57102,-14420,-8220,-4744,327,1077,-2000
57125,-14844,-8244,-924,-560,-1151,-2603
57146,-14440,-8164,4628,-1687,-2480,-2911
57169,-14432,-7504,13864,-4250,-5215,-2570
57190,-13876,-6056,24996,-10152,-10527,-1748
57213,-12116,-2248,31436,-19311,-12440,-322
57235,-9932,4240,31700,-29967,-9276,2162
57257,-7928,11704,23224,-32768,-3814,5518
57278,-8188,18768,8548,-32768,2725,8116
57300,-9912,24144,-5784,-32768,119,9050
57322,-12052,27012,-21456,-32768,-4358,8838
57345,-13580,25712,-32768,-32768,-7052,7868
57367,-13720,23464,-32768,-32120,-7251,6666
57389,-12732,21724,-32768,-22341,-8973,5936
57411,-10884,21108,-32768,-13003,-11802,5863
57432,-8928,20440,-32768,-4445,-12857,6720
57455,-6712,19376,-32768,3393,-12571,8234
57477,-3776,18664,-28800,10681,-12601,10295
57499,-44,19496,-21736,16781,-14406,13218
57520,3080,20996,-14556,21219,-15235,17122
57542,3888,22872,-9660,24292,-13239,21490
57564,1948,23980,-6952,26912,-7457,25816
57587,-1988,26856,-5424,28378,-3012,29042
57609,-5932,27168,-5248,29511,-2208,30949
57631,-10300,27376,-4544,30691,-3060,31468
57654,-14956,25956,-2816,31556,-2605,30848
57675,-19844,26076,-116,31629,651,29467
57697,-25548,24680,2728,30272,2348,27028
57718,-32768,22672,5280,27811,5481,22849
57741,-32768,19940,7524,24055,6502,15507
57762,-32768,17176,9528,19588,4143,4918
57785,-32768,18040,8688,14332,-349,-8413
57807,-32768,19892,4908,10094,-1580,-22602
57830,-32768,25340,-1736,7776,-586,-32768
57850,-32768,32592,-6252,7218,-2333,-32768
57874,-32768,32767,-7276,7074,-6365,-32768
57894,-21324,32767,-8488,5423,-10670,-32768
57916,-6512,32767,-9808,3976,-10785,-32768
57939,9660,32404,-9664,899,-15119,-32768
57961,24876,18864,-11176,-4207,-21896,-32768
57983,32767,5756,-15640,-7211,-18591,-32768
58004,31540,-2284,-17984,-6177,-5481,-21100
58026,23140,-3876,-16104,-4325,5785,-7846
58049,14404,-2896,-16300,-3989,7543,801
58071,5208,-2416,-18480,-2728,9012,5524
58093,-1420,-2256,-20252,-528,10368,7096
58114,-4664,-2880,-21324,2043,9336,7845
58137,-7156,-3296,-21572,5037,6221,8529
58158,-9532,-3292,-20108,7911,2340,8885
58180,-11332,-3652,-18124,10648,588,8794
58203,-12172,-3820,-14740,13102,1541,8355
58225,-11700,-4796,-11244,13983,198,8081
58246,-9948,-5968,-8244,14029,-56,8343
58268,-11300,-6928,-3732,13809,3366,8869
58291,-14488,-7192,2400,11945,3396,8540
58313,-17248,-7456,8276,8901,-896,7729
58335,-20944,-7272,15908,5288,-3690,6590
58357,-26140,-5404,27956,-805,-6687,4309
58378,-26652,-3488,32767,-11376,-12534,1251
58401,-22596,-232,32767,-23499,-13168,-706
58423,-16792,5680,32767,-32768,-10231,-429
58445,-11908,13860,26960,-32768,-2732,1621
58467,-9448,22448,16300,-32768,-1248,4187
58489,-9368,28080,528,-32768,-3148,6500
58510,-10892,30180,-18268,-32768,-4256,7898
58532,-12872,28496,-32768,-32768,-2961,7847
58555,-14936,24848,-32768,-32768,-7082,6775
58577,-16220,22504,-32768,-26094,-11467,5693
58598,-15844,21416,-32768,-14649,-9383,4547
58621,-12788,20876,-32768,-4233,-7644,3949
58643,-9420,20564,-32768,4951,-8172,4540
58664,-6328,19376,-32768,13156,-7896,6050
58687,-4276,19168,-28092,20763,-4959,8280
58708,-3164,19500,-20820,26873,-2316,11226
58730,-3760,21948,-13264,30367,-1645,14545
58752,-4324,22928,-8092,31781,-2563,17480
58774,-5056,22292,-6376,32767,-1390,20369
58796,-7804,21948,-5512,32767,4472,23237
58819,-11108,22228,-3128,32767,2947,25388
58840,-15940,21800,264,32767,289,26037
58862,-20492,19556,4656,32767,1659,25242
58885,-25668,17800,9536,29686,4365,23246
58906,-31796,14760,13420,24031,3805,19497
58929,-32768,11100,14188,17490,2530,13359
58951,-32768,8936,12548,11692,3030,4911
58973,-32768,9060,9824,6629,1576,-5061
58995,-32768,9800,6468,2263,-2096,-14366
59016,-32768,11144,684,-864,-1113,-22018
59039,-32768,13156,-6916,-1522,2562,-28881
59061,-32768,17948,-12248,378,3778,-32768
59083,-28280,20528,-11092,2148,281,-32768
59104,-23544,22992,-8052,1651,-2359,-32768
59127,-15584,27008,-6788,-107,-3432,-32768
59148,-2748,20716,-7164,-3053,-8258,-32768
59170,14148,11400,-11684,-5684,-10794,-32768
59192,27760,1952,-16488,-5139,-4233,-29169
59215,30720,-3456,-16696,-3404,1152,-15705
59237,23996,-4572,-15948,-2509,3204,-4194
59259,14488,-3076,-16776,-2049,4518,3491
59281,5132,-1728,-19232,-728,5967,7408
59303,-2288,-1752,-20568,1679,6449,8939
59325,-7324,-2648,-19392,4479,4579,9375
59347,-11824,-3660,-15208,6958,2986,9561
59369,-16576,-4116,-9436,8161,2345,9005
59390,-19820,-5368,-3192,7703,2038,7516
59412,-21804,-6808,2796,5486,746,5332
59435,-22236,-7196,8848,1703,-767,2875
59457,-21324,-6988,15016,-3335,-2458,715
59479,-18444,-5264,19056,-10359,-4983,-405
59501,-15236,-2604,19056,-18115,-4613,3
59522,-13748,808,13448,-24385,576,1313
59544,-13224,3732,4312,-28214,2651,2172
59567,-13332,6464,-6212,-29864,-339,2375
59588,-13668,8632,-13208,-28987,-1754,2049
59611,-13480,10328,-19180,-27324,-1625,1406
59633,-12316,11284,-25284,-24360,-765,616
59655,-10100,11468,-30404,-20111,-2691,127
59676,-7176,10960,-32768,-14543,-3465,900
59699,-4860,10684,-32768,-8476,-1798,2702
59721,-3600,11448,-32768,-2836,-1358,4903
59743,-3044,11248,-32092,2572,-2164,7208
59765,-2608,10960,-29484,7664,-2125,9337
59787,-2108,11700,-26140,12480,-719,11658
59808,-1140,12464,-21556,16032,-1646,14280
59831,-1128,13020,-16528,18599,-1882,17295
59852,-4112,14132,-11820,19999,1245,20104
59874,-8372,13920,-10028,19698,-198,21561
59896,-12464,12540,-10408,19994,587,21660
59919,-15640,10608,-7948,20938,2200,21043
59940,-18188,8996,-3104,20634,715,20031
59962,-21796,7800,1476,18857,1564,18617
59985,-26556,7148,4660,15658,2814,16339
60006,-30888,5992,6068,11749,1445,12641
60028,-32768,4956,4924,7835,1077,7516
60049,-32768,5600,776,4803,3960,405
60072,-32768,8272,-5092,2886,3827,-9251
60095,-32768,10812,-11100,2784,151,-18871
60116,-32768,12672,-15176,4762,-248,-26922
60139,-32768,14756,-16520,7917,1119,-32768
60161,-26772,20224,-13160,9841,-2037,-32768
60183,-11928,18092,-10480,7909,-10526,-32768
60205,4600,11860,-10512,6124,-9810,-32768
60226,18400,3820,-8608,4895,-5522,-32363
60248,23416,-2712,-7160,3366,-1634,-21267
60271,20020,-5244,-6524,1387,1303,-11276
60292,15384,-6360,-7324,-328,1950,-3847
60314,10048,-6408,-7224,-1037,3417,1561
60337,4696,-6260,-7096,-1559,3261,5576
60359,-2412,-5660,-5832,-1962,3006,8457
60381,-10512,-4496,-3356,-3093,2311,9200
60403,-16556,-4384,-200,-4739,1588,8488
60424,-21312,-4204,3856,-7081,245,6725
60446,-23736,-3732,9648,-10995,-3216,4261
60469,-21612,-2536,14004,-16451,-5646,2032
60490,-16600,-228,14364,-22863,-5851,1377
60513,-12144,2740,9452,-28458,-3507,2442
60535,-10496,6232,1744,-31879,-1229,3997
60557,-11708,10216,-7640,-32768,-2100,4642
60579,-12996,12836,-18328,-32019,-2740,4189
60601,-12760,13324,-27432,-27679,-4672,3453
60623,-11944,13780,-32764,-21473,-4557,2755
60645,-10252,14044,-32768,-14990,-4605,2799
60666,-8608,14232,-32768,-8688,-5223,3666
60688,-7220,14384,-32768,-2293,-3976,4998
60711,-5876,13912,-32484,3962,-2343,6645
60732,-4716,13736,-28452,9575,-1536,8679
60755,-3368,13800,-23092,13945,-1806,11107
60777,-1588,14188,-17388,16748,-3590,14024
60798,-1576,14468,-12968,18531,-1565,17417
60820,-4248,14068,-10048,19598,1839,20492
60842,-8732,13764,-8200,19818,2668,22381
60865,-14188,12884,-6832,19963,1971,22719
60886,-20584,11672,-4432,19875,4120,21277
60908,-24820,9520,-1520,18129,2577,17970
60930,-26952,7636,596,15343,-300,13811
60952,-29344,5996,1512,12636,1350,9531
60973,-31896,5816,124,10025,1561,4800
60995,-32768,5276,-2560,8107,351,-456
61018,-32768,5136,-5132,7528,3030,-6131
61041,-32768,6080,-7252,7600,5334,-12477
61063,-32768,8928,-8192,8117,5535,-19496
61084,-32768,14180,-7124,8297,3443,-26641
61106,-32472,15460,-4732,6744,-2226,-32408
61129,-25204,15448,-4764,3949,-5381,-32768
61151,-16516,16036,-7764,2290,-3642,-32768
61172,-4500,14356,-8088,742,-6990,-32768
61194,8548,9496,-7864,-2451,-13697,-32768
61216,19244,3620,-10796,-4112,-9044,-28179
61238,23808,-1428,-12616,-3469,2200,-17259
61260,22232,-3320,-15592,-3732,4344,-6417
61282,18288,-3388,-20144,-2954,4397,2451
61305,10484,-2204,-22500,-352,5663,9097
61326,1096,-864,-21364,2357,5491,12389
61349,-6096,-980,-19432,4592,3740,13206
61370,-11852,-1656,-15536,6725,3143,12838
61393,-16568,-3328,-10024,7839,2775,11831
61414,-21968,-4556,-2716,7478,2061,9997
61437,-26608,-5036,5208,5041,-215,7135
61458,-28832,-5372,13168,400,-3045,3510
61481,-27016,-5356,17956,-6113,-5188,-113
61503,-21284,-4176,19412,-13572,-7851,-2818
61524,-14724,-916,17416,-21683,-10748,-3177
61546,-9448,2848,9856,-28290,-8606,-1144
61568,-7908,6804,724,-31864,-4763,1471
61591,-9308,10856,-8452,-32768,-5791,3282
61613,-11544,13680,-19992,-32768,-9205,4224
61635,-13772,14664,-30416,-28264,-7809,4389
61657,-14192,13368,-32768,-20202,-4278,3961
61679,-13584,12848,-32768,-11427,-5706,3249
61701,-11920,12976,-32768,-3330,-8932,3203
61723,-9624,13196,-32508,3848,-7243,3950
61745,-6472,12352,-27048,9753,-4069,5701
61766,-3716,12036,-21564,14183,-3724,8489
61789,-1820,12424,-16676,17481,-3013,11950
61811,-1056,13212,-12772,19717,-1841,15850
61832,-1984,13900,-10312,21301,-342,19626
61854,-5188,14464,-8968,22568,4072,22941
61876,-8556,13820,-7680,23175,4040,24961
61898,-13268,11828,-5400,23616,2878,25890
61920,-19700,10736,-1828,23487,6073,25395
61943,-27272,10132,1440,21661,8916,23114
61964,-32768,9608,3796,18348,8691,18421
61987,-32768,8648,5736,14395,5661,11069
62009,-32768,9012,6288,10049,3490,1514
62030,-32768,10424,3400,5972,1287,-9367
62052,-32768,12508,-1032,3092,-1587,-19960
62075,-32768,15740,-5228,1467,-3701,-28986
62096,-32768,17388,-8632,567,-6699,-32768
62118,-23900,18216,-11496,153,-8742,-32768
62140,-13252,19148,-13128,299,-9011,-32768
62163,-1764,15840,-14520,63,-9905,-32768
62184,10064,9924,-16064,68,-8373,-32768
62207,19028,2492,-18320,1304,-3667,-27629
62228,22284,-2776,-18204,3758,2742,-16425
62251,19936,-4804,-16300,5634,5733,-5855
62273,13900,-4872,-14324,6719,6235,2597
62295,5948,-4400,-13352,7681,7527,8651
62316,-3036,-3680,-12728,8673,9661,12109
62338,-11564,-3296,-12060,9740,11598,12845
62360,-19016,-3648,-10164,10455,9268,11370
62383,-24892,-4116,-6196,10605,3351,8183
62404,-27800,-4664,-2916,9962,-1703,3544
62427,-27408,-5728,1056,8950,-2352,-1195
62449,-24340,-6704,5772,6806,-2948,-4834
62470,-19560,-8060,10500,2818,-6734,-6889
62493,-14516,-8688,15260,-2073,-8445,-7092
62514,-9404,-7492,20892,-8150,-7123,-5548
62537,-5176,-5404,25488,-14760,-3001,-2332
62559,-2364,-1204,29192,-23403,-2872,2027
62581,-1280,5628,28040,-32768,-2544,7165
62603,-2696,14448,22172,-32768,4937,11482
62624,-6120,22544,11376,-32768,11923,13234
62647,-8196,28680,-5064,-32768,10940,12443
62669,-10808,29144,-23696,-32768,1002,10990
62690,-14860,26160,-32768,-32768,-8257,9644
62712,-17732,22468,-32768,-31767,-7482,7509
62734,-17572,21020,-32768,-20752,-4607,4680
62756,-15456,20556,-32768,-11917,-7269,2463
62779,-12280,20252,-32768,-4319,-8732,1399
62800,-8580,18372,-32768,3177,-7007,1862
62823,-4716,17148,-31516,10400,-5663,3446
62845,-712,17004,-22932,15976,-7760,6073
62867,3276,17680,-14368,18904,-10537,9518
62889,6168,18380,-8352,19624,-11517,13932
62910,7048,19380,-7284,19574,-9928,18975
62933,5352,19808,-9548,20503,-6704,23948
62955,-560,20756,-11688,22922,-2435,27756
62977,-8224,21924,-11632,25624,-1277,29545
62999,-14952,22656,-9696,28241,78,29509
63020,-21584,22792,-4768,29683,2677,28116
63042,-28684,21896,1284,28546,3331,24904
63065,-32768,20252,7688,24693,545,19273
63087,-32768,17608,11024,18900,-4377,11552
63109,-32768,13624,10436,13576,-5889,3527
63130,-32768,9728,7420,9326,-6832,-3609
63152,-32768,8992,3032,6540,-4400,-9082
63174,-32768,9516,-2332,5719,1260,-13355
63196,-32768,12304,-7188,6681,6271,-18505
63218,-32768,16628,-8892,8139,6563,-25588
63241,-32768,22200,-8592,9290,5537,-32768
63262,-32768,30416,-7460,9249,819,-32768
63284,-32768,32767,-8224,7959,-5910,-32768
63307,-23644,32767,-8488,6512,-12146,-32768
63328,1432,32767,-6364,2847,-17424,-32768
63351,24152,24704,-6948,-3164,-20370,-32768
63374,32767,10608,-11252,-6871,-11518,-32768
63395,32767,2464,-14444,-7146,859,-27590
63416,29424,-1116,-16696,-6678,6881,-14988
63439,22116,-2168,-20668,-5352,7955,-6522
63461,17428,-3188,-24232,-2666,7811,-577
63483,14952,-4548,-25648,867,6659,4506
63504,13024,-5724,-24600,4353,4708,9546
